<https://w3id.org/c-path/biolink_sdtm_owl/subject_1> <http://www.w3.org/1999/02/22-rdf-syntax-ns#type> <https://w3id.org/c-path/biolink_sdtm_owl/SUBJECT>.
<https://w3id.org/c-path/biolink_sdtm_owl/subject_1> <https://w3id.org/c-path/biolink_sdtm_owl/USUBJID> "1".
<https://w3id.org/c-path/biolink_sdtm_owl/subject_1> <https://w3id.org/biolink/has_attribute> <https://w3id.org/c-path/biolink_sdtm_owl/dm_age_1>.
<https://w3id.org/c-path/biolink_sdtm_owl/subject_1> <https://w3id.org/biolink/has_attribute> <https://w3id.org/c-path/biolink_sdtm_owl/dm_sex_1>.
<https://w3id.org/c-path/biolink_sdtm_owl/subject_1> <https://w3id.org/biolink/related_to> <https://w3id.org/c-path/biolink_sdtm_owl/specimen_1_1>.
<https://w3id.org/c-path/biolink_sdtm_owl/subject_2> <http://www.w3.org/1999/02/22-rdf-syntax-ns#type> <https://w3id.org/c-path/biolink_sdtm_owl/SUBJECT>.
<https://w3id.org/c-path/biolink_sdtm_owl/subject_2> <https://w3id.org/c-path/biolink_sdtm_owl/USUBJID> "2".
<https://w3id.org/c-path/biolink_sdtm_owl/subject_2> <https://w3id.org/biolink/has_attribute> <https://w3id.org/c-path/biolink_sdtm_owl/dm_age_2>.
<https://w3id.org/c-path/biolink_sdtm_owl/subject_2> <https://w3id.org/biolink/has_attribute> <https://w3id.org/c-path/biolink_sdtm_owl/dm_sex_2>.
<https://w3id.org/c-path/biolink_sdtm_owl/subject_2> <https://w3id.org/biolink/related_to> <https://w3id.org/c-path/biolink_sdtm_owl/specimen_2_2>.
<https://w3id.org/c-path/biolink_sdtm_owl/site_9999> <http://www.w3.org/1999/02/22-rdf-syntax-ns#type> <https://w3id.org/c-path/biolink_sdtm_owl/STUDYSITE>.
<https://w3id.org/c-path/biolink_sdtm_owl/site_9999> <https://w3id.org/c-path/biolink_sdtm_owl/SITEID> "9999".
<https://w3id.org/c-path/biolink_sdtm_owl/site_9999> <http://www.w3.org/1999/02/22-rdf-syntax-ns#type> <https://w3id.org/c-path/biolink_sdtm_owl/STUDYSITE>.
<https://w3id.org/c-path/biolink_sdtm_owl/site_9999> <https://w3id.org/c-path/biolink_sdtm_owl/SITEID> "9999".
<https://w3id.org/c-path/biolink_sdtm_owl/study_10-12345> <http://www.w3.org/1999/02/22-rdf-syntax-ns#type> <https://w3id.org/c-path/biolink_sdtm_owl/CLINSTUDY>.
<https://w3id.org/c-path/biolink_sdtm_owl/study_10-12345> <https://w3id.org/c-path/biolink_sdtm_owl/STUDYID> "10-12345".
<https://w3id.org/c-path/biolink_sdtm_owl/study_10-12345> <http://www.w3.org/1999/02/22-rdf-syntax-ns#type> <https://w3id.org/c-path/biolink_sdtm_owl/CLINSTUDY>.
<https://w3id.org/c-path/biolink_sdtm_owl/study_10-12345> <https://w3id.org/c-path/biolink_sdtm_owl/STUDYID> "10-12345".
<https://w3id.org/c-path/biolink_sdtm_owl/arm_0> <http://www.w3.org/1999/02/22-rdf-syntax-ns#type> <https://w3id.org/c-path/biolink_sdtm_owl/STUDYARM>.
<https://w3id.org/c-path/biolink_sdtm_owl/arm_0> <https://w3id.org/c-path/biolink_sdtm_owl/ARMCD> "0".
<https://w3id.org/c-path/biolink_sdtm_owl/arm_0> <https://w3id.org/c-path/biolink_sdtm_owl/ARM> "NO DRUG".
<https://w3id.org/c-path/biolink_sdtm_owl/arm_0> <https://w3id.org/biolink/part_of> <https://w3id.org/c-path/biolink_sdtm_owl/study_10-12345>.
<https://w3id.org/c-path/biolink_sdtm_owl/arm_0> <https://w3id.org/biolink/part_of> <https://w3id.org/c-path/biolink_sdtm_owl/study_10-12345>.
<https://w3id.org/c-path/biolink_sdtm_owl/arm_0> <http://www.w3.org/1999/02/22-rdf-syntax-ns#type> <https://w3id.org/c-path/biolink_sdtm_owl/STUDYARM>.
<https://w3id.org/c-path/biolink_sdtm_owl/arm_0> <https://w3id.org/c-path/biolink_sdtm_owl/ARMCD> "0".
<https://w3id.org/c-path/biolink_sdtm_owl/arm_0> <https://w3id.org/c-path/biolink_sdtm_owl/ARM> "NO DRUG".
<https://w3id.org/c-path/biolink_sdtm_owl/arm_0> <https://w3id.org/biolink/part_of> <https://w3id.org/c-path/biolink_sdtm_owl/study_10-12345>.
<https://w3id.org/c-path/biolink_sdtm_owl/arm_0> <https://w3id.org/biolink/part_of> <https://w3id.org/c-path/biolink_sdtm_owl/study_10-12345>.
<https://w3id.org/c-path/biolink_sdtm_owl/dm_age_1> <http://www.w3.org/1999/02/22-rdf-syntax-ns#type> <https://w3id.org/c-path/biolink_sdtm_owl/AGE>.
<https://w3id.org/c-path/biolink_sdtm_owl/dm_age_1> <https://w3id.org/biolink/has_quantitative_value> <https://w3id.org/c-path/biolink_sdtm_owl/dm_age_quantitative_value_1>.
<https://w3id.org/c-path/biolink_sdtm_owl/dm_age_2> <http://www.w3.org/1999/02/22-rdf-syntax-ns#type> <https://w3id.org/c-path/biolink_sdtm_owl/AGE>.
<https://w3id.org/c-path/biolink_sdtm_owl/dm_age_2> <https://w3id.org/biolink/has_quantitative_value> <https://w3id.org/c-path/biolink_sdtm_owl/dm_age_quantitative_value_2>.
<https://w3id.org/c-path/biolink_sdtm_owl/dm_age_quantitative_value_1> <http://www.w3.org/1999/02/22-rdf-syntax-ns#type> <https://w3id.org/biolink/QuantityValue>.
<https://w3id.org/c-path/biolink_sdtm_owl/dm_age_quantitative_value_1> <https://w3id.org/biolink/has_unit> "YEARS".
<https://w3id.org/c-path/biolink_sdtm_owl/dm_age_quantitative_value_1> <https://w3id.org/biolink/has_numeric_value> "40"^^<http://www.w3.org/2001/XMLSchema#integer>.
<https://w3id.org/c-path/biolink_sdtm_owl/dm_age_quantitative_value_2> <http://www.w3.org/1999/02/22-rdf-syntax-ns#type> <https://w3id.org/biolink/QuantityValue>.
<https://w3id.org/c-path/biolink_sdtm_owl/dm_age_quantitative_value_2> <https://w3id.org/biolink/has_unit> "YEARS".
<https://w3id.org/c-path/biolink_sdtm_owl/dm_age_quantitative_value_2> <https://w3id.org/biolink/has_numeric_value> "50"^^<http://www.w3.org/2001/XMLSchema#integer>.
<https://w3id.org/c-path/biolink_sdtm_owl/dm_sex_1> <http://www.w3.org/1999/02/22-rdf-syntax-ns#type> <https://w3id.org/c-path/biolink_sdtm_owl/SEX>.
<https://w3id.org/c-path/biolink_sdtm_owl/dm_sex_1> <https://w3id.org/biolink/has_qualitative_value> "M".
<https://w3id.org/c-path/biolink_sdtm_owl/dm_sex_2> <http://www.w3.org/1999/02/22-rdf-syntax-ns#type> <https://w3id.org/c-path/biolink_sdtm_owl/SEX>.
<https://w3id.org/c-path/biolink_sdtm_owl/dm_sex_2> <https://w3id.org/biolink/has_qualitative_value> "F".
<https://w3id.org/c-path/biolink_sdtm_owl/lbtest_1_1> <http://www.w3.org/1999/02/22-rdf-syntax-ns#type> <https://w3id.org/c-path/biolink_sdtm_owl/ALB>.
<https://w3id.org/c-path/biolink_sdtm_owl/lbtest_1_1> <https://w3id.org/c-path/biolink_sdtm_owl/in_lb_cat> <https://w3id.org/c-path/biolink_sdtm_owl/CHEMISTRY>.
<https://w3id.org/c-path/biolink_sdtm_owl/lbtest_1_1> <https://w3id.org/c-path/biolink_sdtm_owl/associated_with_visit> <https://w3id.org/c-path/biolink_sdtm_owl/visit_one>.
<https://w3id.org/c-path/biolink_sdtm_owl/lbtest_1_1> <https://w3id.org/biolink/has_input> <https://w3id.org/c-path/biolink_sdtm_owl/specimen_1_1>.
<https://w3id.org/c-path/biolink_sdtm_owl/lbtest_1_1> <https://w3id.org/biolink/has_output> <https://w3id.org/c-path/biolink_sdtm_owl/lb_lab_test_numeric_result_in_standard_units_1>.
<https://w3id.org/c-path/biolink_sdtm_owl/lbtest_1_1> <https://w3id.org/biolink/has_output> <https://w3id.org/c-path/biolink_sdtm_owl/lb_lab_test_numeric_result_in_original_units_1>.
<https://w3id.org/c-path/biolink_sdtm_owl/lbtest_2_2> <http://www.w3.org/1999/02/22-rdf-syntax-ns#type> <https://w3id.org/c-path/biolink_sdtm_owl/BICARB>.
<https://w3id.org/c-path/biolink_sdtm_owl/lbtest_2_2> <https://w3id.org/c-path/biolink_sdtm_owl/in_lb_cat> <https://w3id.org/c-path/biolink_sdtm_owl/CHEMISTRY>.
<https://w3id.org/c-path/biolink_sdtm_owl/lbtest_2_2> <https://w3id.org/c-path/biolink_sdtm_owl/associated_with_visit> <https://w3id.org/c-path/biolink_sdtm_owl/visit_two>.
<https://w3id.org/c-path/biolink_sdtm_owl/lbtest_2_2> <https://w3id.org/biolink/has_input> <https://w3id.org/c-path/biolink_sdtm_owl/specimen_2_2>.
<https://w3id.org/c-path/biolink_sdtm_owl/lbtest_2_2> <https://w3id.org/biolink/has_output> <https://w3id.org/c-path/biolink_sdtm_owl/lb_lab_test_numeric_result_in_standard_units_2>.
<https://w3id.org/c-path/biolink_sdtm_owl/lbtest_2_2> <https://w3id.org/biolink/has_output> <https://w3id.org/c-path/biolink_sdtm_owl/lb_lab_test_numeric_result_in_original_units_2>.
<https://w3id.org/c-path/biolink_sdtm_owl/visit_one> <http://www.w3.org/1999/02/22-rdf-syntax-ns#type> <https://w3id.org/c-path/biolink_sdtm_owl/VISIT>.
<https://w3id.org/c-path/biolink_sdtm_owl/visit_one> <https://w3id.org/c-path/biolink_sdtm_owl/VISITNAME> "visit_one".
<https://w3id.org/c-path/biolink_sdtm_owl/visit_one> <https://w3id.org/c-path/biolink_sdtm_owl/DTC> "10".
<https://w3id.org/c-path/biolink_sdtm_owl/visit_two> <http://www.w3.org/1999/02/22-rdf-syntax-ns#type> <https://w3id.org/c-path/biolink_sdtm_owl/VISIT>.
<https://w3id.org/c-path/biolink_sdtm_owl/visit_two> <https://w3id.org/c-path/biolink_sdtm_owl/VISITNAME> "visit_two".
<https://w3id.org/c-path/biolink_sdtm_owl/visit_two> <https://w3id.org/c-path/biolink_sdtm_owl/DTC> "11".
<https://w3id.org/c-path/biolink_sdtm_owl/specimen_collection_process_1_1> <http://www.w3.org/1999/02/22-rdf-syntax-ns#type> <https://w3id.org/c-path/biolink_sdtm_owl/SPCCOL>.
<https://w3id.org/c-path/biolink_sdtm_owl/specimen_collection_process_1_1> <https://w3id.org/biolink/has_output> <https://w3id.org/c-path/biolink_sdtm_owl/specimen_1_1>.
<https://w3id.org/c-path/biolink_sdtm_owl/specimen_collection_process_1_1> <https://w3id.org/biolink/has_input> <https://w3id.org/c-path/biolink_sdtm_owl/subject_1>.
<https://w3id.org/c-path/biolink_sdtm_owl/specimen_collection_process_2_2> <http://www.w3.org/1999/02/22-rdf-syntax-ns#type> <https://w3id.org/c-path/biolink_sdtm_owl/SPCCOL>.
<https://w3id.org/c-path/biolink_sdtm_owl/specimen_collection_process_2_2> <https://w3id.org/biolink/has_output> <https://w3id.org/c-path/biolink_sdtm_owl/specimen_2_2>.
<https://w3id.org/c-path/biolink_sdtm_owl/specimen_collection_process_2_2> <https://w3id.org/biolink/has_input> <https://w3id.org/c-path/biolink_sdtm_owl/subject_2>.
<https://w3id.org/c-path/biolink_sdtm_owl/specimen_1_1> <http://www.w3.org/1999/02/22-rdf-syntax-ns#type> <https://w3id.org/c-path/biolink_sdtm_owl/LBBLOOD>.
<https://w3id.org/c-path/biolink_sdtm_owl/specimen_1_1> <https://w3id.org/biolink/related_to> <https://w3id.org/c-path/biolink_sdtm_owl/lbtest_1_1>.
<https://w3id.org/c-path/biolink_sdtm_owl/specimen_2_2> <http://www.w3.org/1999/02/22-rdf-syntax-ns#type> <https://w3id.org/c-path/biolink_sdtm_owl/LBBLOOD>.
<https://w3id.org/c-path/biolink_sdtm_owl/specimen_2_2> <https://w3id.org/biolink/related_to> <https://w3id.org/c-path/biolink_sdtm_owl/lbtest_2_2>.
<https://w3id.org/c-path/biolink_sdtm_owl/lb_lab_test_reference_range_in_original_units_1> <http://www.w3.org/1999/02/22-rdf-syntax-ns#type> <https://w3id.org/c-path/biolink_sdtm_owl/LBORRNG>.
<https://w3id.org/c-path/biolink_sdtm_owl/lb_lab_test_reference_range_in_original_units_1> <https://w3id.org/c-path/biolink_sdtm_owl/LBORNRLO> "1.1".
<https://w3id.org/c-path/biolink_sdtm_owl/lb_lab_test_reference_range_in_original_units_1> <https://w3id.org/c-path/biolink_sdtm_owl/LBORNRHI> "4.1".
<https://w3id.org/c-path/biolink_sdtm_owl/lb_lab_test_reference_range_in_original_units_1> <http://purl.obolibrary.org/obo/IAO_0000136> <https://w3id.org/c-path/biolink_sdtm_owl/lbtest_1_1>.
<https://w3id.org/c-path/biolink_sdtm_owl/lb_lab_test_reference_range_in_original_units_2> <http://www.w3.org/1999/02/22-rdf-syntax-ns#type> <https://w3id.org/c-path/biolink_sdtm_owl/LBORRNG>.
<https://w3id.org/c-path/biolink_sdtm_owl/lb_lab_test_reference_range_in_original_units_2> <https://w3id.org/c-path/biolink_sdtm_owl/LBORNRLO> "2.1".
<https://w3id.org/c-path/biolink_sdtm_owl/lb_lab_test_reference_range_in_original_units_2> <https://w3id.org/c-path/biolink_sdtm_owl/LBORNRHI> "5.1".
<https://w3id.org/c-path/biolink_sdtm_owl/lb_lab_test_reference_range_in_original_units_2> <http://purl.obolibrary.org/obo/IAO_0000136> <https://w3id.org/c-path/biolink_sdtm_owl/lbtest_2_2>.
<https://w3id.org/c-path/biolink_sdtm_owl/lb_lab_test_reference_range_in_standard_units_1> <http://www.w3.org/1999/02/22-rdf-syntax-ns#type> <https://w3id.org/c-path/biolink_sdtm_owl/LBSTRNG>.
<https://w3id.org/c-path/biolink_sdtm_owl/lb_lab_test_reference_range_in_standard_units_1> <https://w3id.org/c-path/biolink_sdtm_owl/LBSTNRLO> "1.1".
<https://w3id.org/c-path/biolink_sdtm_owl/lb_lab_test_reference_range_in_standard_units_1> <https://w3id.org/c-path/biolink_sdtm_owl/LBSTNRHI> "4.1".
<https://w3id.org/c-path/biolink_sdtm_owl/lb_lab_test_reference_range_in_standard_units_1> <http://purl.obolibrary.org/obo/IAO_0000136> <https://w3id.org/c-path/biolink_sdtm_owl/lbtest_1_1>.
<https://w3id.org/c-path/biolink_sdtm_owl/lb_lab_test_reference_range_in_standard_units_2> <http://www.w3.org/1999/02/22-rdf-syntax-ns#type> <https://w3id.org/c-path/biolink_sdtm_owl/LBSTRNG>.
<https://w3id.org/c-path/biolink_sdtm_owl/lb_lab_test_reference_range_in_standard_units_2> <https://w3id.org/c-path/biolink_sdtm_owl/LBSTNRLO> "2.1".
<https://w3id.org/c-path/biolink_sdtm_owl/lb_lab_test_reference_range_in_standard_units_2> <https://w3id.org/c-path/biolink_sdtm_owl/LBSTNRHI> "5.1".
<https://w3id.org/c-path/biolink_sdtm_owl/lb_lab_test_reference_range_in_standard_units_2> <http://purl.obolibrary.org/obo/IAO_0000136> <https://w3id.org/c-path/biolink_sdtm_owl/lbtest_2_2>.
<https://w3id.org/c-path/biolink_sdtm_owl/lb_lab_test_numeric_result_in_standard_units_1> <http://www.w3.org/1999/02/22-rdf-syntax-ns#type> <https://w3id.org/c-path/biolink_sdtm_owl/LBSTRESN>.
<https://w3id.org/c-path/biolink_sdtm_owl/lb_lab_test_numeric_result_in_standard_units_1> <https://w3id.org/biolink/has_attribute> <https://w3id.org/c-path/biolink_sdtm_owl/lb_lab_test_numeric_result_in_standard_units_attribute_1>.
<https://w3id.org/c-path/biolink_sdtm_owl/lb_lab_test_numeric_result_in_standard_units_2> <http://www.w3.org/1999/02/22-rdf-syntax-ns#type> <https://w3id.org/c-path/biolink_sdtm_owl/LBSTRESN>.
<https://w3id.org/c-path/biolink_sdtm_owl/lb_lab_test_numeric_result_in_standard_units_2> <https://w3id.org/biolink/has_attribute> <https://w3id.org/c-path/biolink_sdtm_owl/lb_lab_test_numeric_result_in_standard_units_attribute_2>.
<https://w3id.org/c-path/biolink_sdtm_owl/lb_lab_test_numeric_result_in_standard_units_attribute_1> <http://www.w3.org/1999/02/22-rdf-syntax-ns#type> <https://w3id.org/biolink/Attribute>.
<https://w3id.org/c-path/biolink_sdtm_owl/lb_lab_test_numeric_result_in_standard_units_attribute_1> <https://w3id.org/biolink/has_quantitative_value> <https://w3id.org/c-path/biolink_sdtm_owl/lb_lab_test_numeric_result_in_standard_units_quantitative_value_1>.
<https://w3id.org/c-path/biolink_sdtm_owl/lb_lab_test_numeric_result_in_standard_units_attribute_2> <http://www.w3.org/1999/02/22-rdf-syntax-ns#type> <https://w3id.org/biolink/Attribute>.
<https://w3id.org/c-path/biolink_sdtm_owl/lb_lab_test_numeric_result_in_standard_units_attribute_2> <https://w3id.org/biolink/has_quantitative_value> <https://w3id.org/c-path/biolink_sdtm_owl/lb_lab_test_numeric_result_in_standard_units_quantitative_value_2>.
<https://w3id.org/c-path/biolink_sdtm_owl/lb_lab_test_numeric_result_in_standard_units_quantitative_value_1> <http://www.w3.org/1999/02/22-rdf-syntax-ns#type> <https://w3id.org/biolink/QuantityValue>.
<https://w3id.org/c-path/biolink_sdtm_owl/lb_lab_test_numeric_result_in_standard_units_quantitative_value_1> <https://w3id.org/c-path/biolink_sdtm_owl/STRESU> "mL".
<https://w3id.org/c-path/biolink_sdtm_owl/lb_lab_test_numeric_result_in_standard_units_quantitative_value_1> <https://w3id.org/biolink/has_numeric_value> "1.23".
<https://w3id.org/c-path/biolink_sdtm_owl/lb_lab_test_numeric_result_in_standard_units_quantitative_value_2> <http://www.w3.org/1999/02/22-rdf-syntax-ns#type> <https://w3id.org/biolink/QuantityValue>.
<https://w3id.org/c-path/biolink_sdtm_owl/lb_lab_test_numeric_result_in_standard_units_quantitative_value_2> <https://w3id.org/c-path/biolink_sdtm_owl/STRESU> "mg".
<https://w3id.org/c-path/biolink_sdtm_owl/lb_lab_test_numeric_result_in_standard_units_quantitative_value_2> <https://w3id.org/biolink/has_numeric_value> "2.34".
<https://w3id.org/c-path/biolink_sdtm_owl/lb_lab_test_numeric_result_in_original_units_1> <http://www.w3.org/1999/02/22-rdf-syntax-ns#type> <https://w3id.org/c-path/biolink_sdtm_owl/LBORRES>.
<https://w3id.org/c-path/biolink_sdtm_owl/lb_lab_test_numeric_result_in_original_units_1> <https://w3id.org/biolink/has_attribute> <https://w3id.org/c-path/biolink_sdtm_owl/lb_lab_test_numeric_result_in_original_units_attribute_1>.
<https://w3id.org/c-path/biolink_sdtm_owl/lb_lab_test_numeric_result_in_original_units_2> <http://www.w3.org/1999/02/22-rdf-syntax-ns#type> <https://w3id.org/c-path/biolink_sdtm_owl/LBORRES>.
<https://w3id.org/c-path/biolink_sdtm_owl/lb_lab_test_numeric_result_in_original_units_2> <https://w3id.org/biolink/has_attribute> <https://w3id.org/c-path/biolink_sdtm_owl/lb_lab_test_numeric_result_in_original_units_attribute_2>.
<https://w3id.org/c-path/biolink_sdtm_owl/lb_lab_test_numeric_result_in_original_units_attribute_1> <http://www.w3.org/1999/02/22-rdf-syntax-ns#type> <https://w3id.org/biolink/Attribute>.
<https://w3id.org/c-path/biolink_sdtm_owl/lb_lab_test_numeric_result_in_original_units_attribute_1> <https://w3id.org/biolink/has_quantitative_value> <https://w3id.org/c-path/biolink_sdtm_owl/lb_lab_test_numeric_result_in_original_units_quantitative_value_1>.
<https://w3id.org/c-path/biolink_sdtm_owl/lb_lab_test_numeric_result_in_original_units_attribute_2> <http://www.w3.org/1999/02/22-rdf-syntax-ns#type> <https://w3id.org/biolink/Attribute>.
<https://w3id.org/c-path/biolink_sdtm_owl/lb_lab_test_numeric_result_in_original_units_attribute_2> <https://w3id.org/biolink/has_quantitative_value> <https://w3id.org/c-path/biolink_sdtm_owl/lb_lab_test_numeric_result_in_original_units_quantitative_value_2>.
<https://w3id.org/c-path/biolink_sdtm_owl/lb_lab_test_numeric_result_in_original_units_quantitative_value_1> <http://www.w3.org/1999/02/22-rdf-syntax-ns#type> <https://w3id.org/biolink/QuantityValue>.
<https://w3id.org/c-path/biolink_sdtm_owl/lb_lab_test_numeric_result_in_original_units_quantitative_value_1> <https://w3id.org/c-path/biolink_sdtm_owl/ORRESU> "mL".
<https://w3id.org/c-path/biolink_sdtm_owl/lb_lab_test_numeric_result_in_original_units_quantitative_value_1> <https://w3id.org/biolink/has_numeric_value> "1.23".
<https://w3id.org/c-path/biolink_sdtm_owl/lb_lab_test_numeric_result_in_original_units_quantitative_value_2> <http://www.w3.org/1999/02/22-rdf-syntax-ns#type> <https://w3id.org/biolink/QuantityValue>.
<https://w3id.org/c-path/biolink_sdtm_owl/lb_lab_test_numeric_result_in_original_units_quantitative_value_2> <https://w3id.org/c-path/biolink_sdtm_owl/ORRESU> "mg".
<https://w3id.org/c-path/biolink_sdtm_owl/lb_lab_test_numeric_result_in_original_units_quantitative_value_2> <https://w3id.org/biolink/has_numeric_value> "2.34".
<https://w3id.org/c-path/biolink_sdtm_owl/urtest_1_1> <http://www.w3.org/1999/02/22-rdf-syntax-ns#type> <https://w3id.org/c-path/biolink_sdtm_owl/URTEST>.
<https://w3id.org/c-path/biolink_sdtm_owl/urtest_1_1> <https://w3id.org/c-path/biolink_sdtm_owl/associated_with_visit> <https://w3id.org/c-path/biolink_sdtm_owl/visit_one>.
<https://w3id.org/c-path/biolink_sdtm_owl/urtest_1_1> <https://w3id.org/biolink/has_output> <https://w3id.org/c-path/biolink_sdtm_owl/ur_urinary_system_test_measurement_1>.
<https://w3id.org/c-path/biolink_sdtm_owl/urtest_1_1> <https://w3id.org/c-path/biolink_sdtm_owl/has_anatomical_location> <https://w3id.org/c-path/biolink_sdtm_owl/ur_urinary_system_test_location_1>.
<https://w3id.org/c-path/biolink_sdtm_owl/urtest_1_1> <https://w3id.org/c-path/biolink_sdtm_owl/has_anatomical_location> <https://w3id.org/c-path/biolink_sdtm_owl/ur_urinary_system_test_laterality_of_anatomical_location_1>.
<https://w3id.org/c-path/biolink_sdtm_owl/urtest_1_1> <https://w3id.org/c-path/biolink_sdtm_owl/METHOD> <https://w3id.org/c-path/biolink_sdtm_owl/ur_urinary_system_test_method_1>.
<https://w3id.org/c-path/biolink_sdtm_owl/urtest_1_1> <https://w3id.org/biolink/has_output> <https://w3id.org/c-path/biolink_sdtm_owl/ur_urinary_system_test_numeric_result_in_standard_units_1>.
<https://w3id.org/c-path/biolink_sdtm_owl/urtest_1_1> <https://w3id.org/biolink/has_output> <https://w3id.org/c-path/biolink_sdtm_owl/ur_urinary_system_test_numeric_result_in_original_units_1>.
<https://w3id.org/c-path/biolink_sdtm_owl/urtest_1_1> <https://w3id.org/biolink/has_output> <https://w3id.org/c-path/biolink_sdtm_owl/ur_urinary_system_test_character_result_in_standard_format_1>.
<https://w3id.org/c-path/biolink_sdtm_owl/urtest_2_2> <http://www.w3.org/1999/02/22-rdf-syntax-ns#type> <https://w3id.org/c-path/biolink_sdtm_owl/URTEST>.
<https://w3id.org/c-path/biolink_sdtm_owl/urtest_2_2> <https://w3id.org/c-path/biolink_sdtm_owl/associated_with_visit> <https://w3id.org/c-path/biolink_sdtm_owl/visit_one>.
<https://w3id.org/c-path/biolink_sdtm_owl/urtest_2_2> <https://w3id.org/biolink/has_output> <https://w3id.org/c-path/biolink_sdtm_owl/ur_urinary_system_test_measurement_2>.
<https://w3id.org/c-path/biolink_sdtm_owl/urtest_2_2> <https://w3id.org/c-path/biolink_sdtm_owl/has_anatomical_location> <https://w3id.org/c-path/biolink_sdtm_owl/ur_urinary_system_test_location_2>.
<https://w3id.org/c-path/biolink_sdtm_owl/urtest_2_2> <https://w3id.org/c-path/biolink_sdtm_owl/has_anatomical_location> <https://w3id.org/c-path/biolink_sdtm_owl/ur_urinary_system_test_laterality_of_anatomical_location_2>.
<https://w3id.org/c-path/biolink_sdtm_owl/urtest_2_2> <https://w3id.org/c-path/biolink_sdtm_owl/METHOD> <https://w3id.org/c-path/biolink_sdtm_owl/ur_urinary_system_test_method_2>.
<https://w3id.org/c-path/biolink_sdtm_owl/urtest_2_2> <https://w3id.org/biolink/has_output> <https://w3id.org/c-path/biolink_sdtm_owl/ur_urinary_system_test_numeric_result_in_standard_units_2>.
<https://w3id.org/c-path/biolink_sdtm_owl/urtest_2_2> <https://w3id.org/biolink/has_output> <https://w3id.org/c-path/biolink_sdtm_owl/ur_urinary_system_test_numeric_result_in_original_units_2>.
<https://w3id.org/c-path/biolink_sdtm_owl/urtest_2_2> <https://w3id.org/biolink/has_output> <https://w3id.org/c-path/biolink_sdtm_owl/ur_urinary_system_test_character_result_in_standard_format_2>.
<https://w3id.org/c-path/biolink_sdtm_owl/urtest_2_3> <http://www.w3.org/1999/02/22-rdf-syntax-ns#type> <https://w3id.org/c-path/biolink_sdtm_owl/URTEST>.
<https://w3id.org/c-path/biolink_sdtm_owl/urtest_2_3> <https://w3id.org/c-path/biolink_sdtm_owl/associated_with_visit> <https://w3id.org/c-path/biolink_sdtm_owl/visit_one>.
<https://w3id.org/c-path/biolink_sdtm_owl/urtest_2_3> <https://w3id.org/biolink/has_output> <https://w3id.org/c-path/biolink_sdtm_owl/ur_urinary_system_test_measurement_3>.
<https://w3id.org/c-path/biolink_sdtm_owl/urtest_2_3> <https://w3id.org/c-path/biolink_sdtm_owl/has_anatomical_location> <https://w3id.org/c-path/biolink_sdtm_owl/ur_urinary_system_test_location_3>.
<https://w3id.org/c-path/biolink_sdtm_owl/urtest_2_3> <https://w3id.org/c-path/biolink_sdtm_owl/has_anatomical_location> <https://w3id.org/c-path/biolink_sdtm_owl/ur_urinary_system_test_laterality_of_anatomical_location_3>.
<https://w3id.org/c-path/biolink_sdtm_owl/urtest_2_3> <https://w3id.org/c-path/biolink_sdtm_owl/METHOD> <https://w3id.org/c-path/biolink_sdtm_owl/ur_urinary_system_test_method_3>.
<https://w3id.org/c-path/biolink_sdtm_owl/urtest_2_3> <https://w3id.org/biolink/has_output> <https://w3id.org/c-path/biolink_sdtm_owl/ur_urinary_system_test_numeric_result_in_standard_units_3>.
<https://w3id.org/c-path/biolink_sdtm_owl/urtest_2_3> <https://w3id.org/biolink/has_output> <https://w3id.org/c-path/biolink_sdtm_owl/ur_urinary_system_test_numeric_result_in_original_units_3>.
<https://w3id.org/c-path/biolink_sdtm_owl/urtest_2_3> <https://w3id.org/biolink/has_output> <https://w3id.org/c-path/biolink_sdtm_owl/ur_urinary_system_test_character_result_in_standard_format_3>.
<https://w3id.org/c-path/biolink_sdtm_owl/visit_one> <http://www.w3.org/1999/02/22-rdf-syntax-ns#type> <https://w3id.org/c-path/biolink_sdtm_owl/VISIT>.
<https://w3id.org/c-path/biolink_sdtm_owl/visit_one> <https://w3id.org/c-path/biolink_sdtm_owl/VISITNAME> "visit_one".
<https://w3id.org/c-path/biolink_sdtm_owl/visit_one> <https://w3id.org/c-path/biolink_sdtm_owl/VISITNUM> "1".
<https://w3id.org/c-path/biolink_sdtm_owl/visit_one> <https://w3id.org/c-path/biolink_sdtm_owl/DTC> "10".
<https://w3id.org/c-path/biolink_sdtm_owl/visit_one> <http://www.w3.org/1999/02/22-rdf-syntax-ns#type> <https://w3id.org/c-path/biolink_sdtm_owl/VISIT>.
<https://w3id.org/c-path/biolink_sdtm_owl/visit_one> <https://w3id.org/c-path/biolink_sdtm_owl/VISITNAME> "visit_one".
<https://w3id.org/c-path/biolink_sdtm_owl/visit_one> <https://w3id.org/c-path/biolink_sdtm_owl/VISITNUM> "1".
<https://w3id.org/c-path/biolink_sdtm_owl/visit_one> <https://w3id.org/c-path/biolink_sdtm_owl/DTC> "11".
<https://w3id.org/c-path/biolink_sdtm_owl/visit_one> <http://www.w3.org/1999/02/22-rdf-syntax-ns#type> <https://w3id.org/c-path/biolink_sdtm_owl/VISIT>.
<https://w3id.org/c-path/biolink_sdtm_owl/visit_one> <https://w3id.org/c-path/biolink_sdtm_owl/VISITNAME> "visit_one".
<https://w3id.org/c-path/biolink_sdtm_owl/visit_one> <https://w3id.org/c-path/biolink_sdtm_owl/VISITNUM> "1".
<https://w3id.org/c-path/biolink_sdtm_owl/visit_one> <https://w3id.org/c-path/biolink_sdtm_owl/DTC> "12".
<https://w3id.org/c-path/biolink_sdtm_owl/ur_urinary_system_test_measurement_1> <http://www.w3.org/1999/02/22-rdf-syntax-ns#type> <https://w3id.org/c-path/biolink_sdtm_owl/LOCVOLUME>.
<https://w3id.org/c-path/biolink_sdtm_owl/ur_urinary_system_test_measurement_2> <http://www.w3.org/1999/02/22-rdf-syntax-ns#type> <https://w3id.org/c-path/biolink_sdtm_owl/LOCVOLUME>.
<https://w3id.org/c-path/biolink_sdtm_owl/ur_urinary_system_test_measurement_3> <http://www.w3.org/1999/02/22-rdf-syntax-ns#type> <https://w3id.org/c-path/biolink_sdtm_owl/LOCVOLUME>.
<https://w3id.org/c-path/biolink_sdtm_owl/ur_urinary_system_test_location_1> <http://www.w3.org/1999/02/22-rdf-syntax-ns#type> <https://w3id.org/c-path/biolink_sdtm_owl/KIDNEY>.
<https://w3id.org/c-path/biolink_sdtm_owl/ur_urinary_system_test_location_2> <http://www.w3.org/1999/02/22-rdf-syntax-ns#type> <https://w3id.org/c-path/biolink_sdtm_owl/KIDNEY>.
<https://w3id.org/c-path/biolink_sdtm_owl/ur_urinary_system_test_location_3> <http://www.w3.org/1999/02/22-rdf-syntax-ns#type> <https://w3id.org/c-path/biolink_sdtm_owl/KIDNEY>.
<https://w3id.org/c-path/biolink_sdtm_owl/ur_urinary_system_test_laterality_of_anatomical_location_1> <http://www.w3.org/1999/02/22-rdf-syntax-ns#type> <https://w3id.org/c-path/biolink_sdtm_owl/BILATERAL>.
<https://w3id.org/c-path/biolink_sdtm_owl/ur_urinary_system_test_laterality_of_anatomical_location_2> <http://www.w3.org/1999/02/22-rdf-syntax-ns#type> <https://w3id.org/c-path/biolink_sdtm_owl/RIGHT>.
<https://w3id.org/c-path/biolink_sdtm_owl/ur_urinary_system_test_laterality_of_anatomical_location_3> <http://www.w3.org/1999/02/22-rdf-syntax-ns#type> <https://w3id.org/c-path/biolink_sdtm_owl/LEFT>.
<https://w3id.org/c-path/biolink_sdtm_owl/ur_urinary_system_test_method_1> <http://www.w3.org/1999/02/22-rdf-syntax-ns#type> <https://w3id.org/c-path/biolink_sdtm_owl/MRI>.
<https://w3id.org/c-path/biolink_sdtm_owl/ur_urinary_system_test_method_2> <http://www.w3.org/1999/02/22-rdf-syntax-ns#type> <https://w3id.org/c-path/biolink_sdtm_owl/MRI>.
<https://w3id.org/c-path/biolink_sdtm_owl/ur_urinary_system_test_method_3> <http://www.w3.org/1999/02/22-rdf-syntax-ns#type> <https://w3id.org/c-path/biolink_sdtm_owl/MRI>.
<https://w3id.org/c-path/biolink_sdtm_owl/ur_urinary_system_test_numeric_result_in_standard_units_1> <http://www.w3.org/1999/02/22-rdf-syntax-ns#type> <https://w3id.org/c-path/biolink_sdtm_owl/URSTRESN>.
<https://w3id.org/c-path/biolink_sdtm_owl/ur_urinary_system_test_numeric_result_in_standard_units_1> <https://w3id.org/biolink/has_attribute> <https://w3id.org/c-path/biolink_sdtm_owl/ur_urinary_system_test_numeric_result_in_standard_units_attribute_1>.
<https://w3id.org/c-path/biolink_sdtm_owl/ur_urinary_system_test_numeric_result_in_standard_units_2> <http://www.w3.org/1999/02/22-rdf-syntax-ns#type> <https://w3id.org/c-path/biolink_sdtm_owl/URSTRESN>.
<https://w3id.org/c-path/biolink_sdtm_owl/ur_urinary_system_test_numeric_result_in_standard_units_2> <https://w3id.org/biolink/has_attribute> <https://w3id.org/c-path/biolink_sdtm_owl/ur_urinary_system_test_numeric_result_in_standard_units_attribute_2>.
<https://w3id.org/c-path/biolink_sdtm_owl/ur_urinary_system_test_numeric_result_in_standard_units_3> <http://www.w3.org/1999/02/22-rdf-syntax-ns#type> <https://w3id.org/c-path/biolink_sdtm_owl/URSTRESN>.
<https://w3id.org/c-path/biolink_sdtm_owl/ur_urinary_system_test_numeric_result_in_standard_units_3> <https://w3id.org/biolink/has_attribute> <https://w3id.org/c-path/biolink_sdtm_owl/ur_urinary_system_test_numeric_result_in_standard_units_attribute_3>.
<https://w3id.org/c-path/biolink_sdtm_owl/ur_urinary_system_test_numeric_result_in_standard_units_attribute_1> <http://www.w3.org/1999/02/22-rdf-syntax-ns#type> <https://w3id.org/biolink/Attribute>.
<https://w3id.org/c-path/biolink_sdtm_owl/ur_urinary_system_test_numeric_result_in_standard_units_attribute_1> <https://w3id.org/biolink/has_quantitative_value> <https://w3id.org/c-path/biolink_sdtm_owl/ur_urinary_system_test_numeric_result_in_standard_units_quantitative_value_1>.
<https://w3id.org/c-path/biolink_sdtm_owl/ur_urinary_system_test_numeric_result_in_standard_units_attribute_2> <http://www.w3.org/1999/02/22-rdf-syntax-ns#type> <https://w3id.org/biolink/Attribute>.
<https://w3id.org/c-path/biolink_sdtm_owl/ur_urinary_system_test_numeric_result_in_standard_units_attribute_2> <https://w3id.org/biolink/has_quantitative_value> <https://w3id.org/c-path/biolink_sdtm_owl/ur_urinary_system_test_numeric_result_in_standard_units_quantitative_value_2>.
<https://w3id.org/c-path/biolink_sdtm_owl/ur_urinary_system_test_numeric_result_in_standard_units_attribute_3> <http://www.w3.org/1999/02/22-rdf-syntax-ns#type> <https://w3id.org/biolink/Attribute>.
<https://w3id.org/c-path/biolink_sdtm_owl/ur_urinary_system_test_numeric_result_in_standard_units_attribute_3> <https://w3id.org/biolink/has_quantitative_value> <https://w3id.org/c-path/biolink_sdtm_owl/ur_urinary_system_test_numeric_result_in_standard_units_quantitative_value_3>.
<https://w3id.org/c-path/biolink_sdtm_owl/ur_urinary_system_test_numeric_result_in_standard_units_quantitative_value_1> <http://www.w3.org/1999/02/22-rdf-syntax-ns#type> <https://w3id.org/biolink/QuantityValue>.
<https://w3id.org/c-path/biolink_sdtm_owl/ur_urinary_system_test_numeric_result_in_standard_units_quantitative_value_1> <https://w3id.org/c-path/biolink_sdtm_owl/STRESU> "mL".
<https://w3id.org/c-path/biolink_sdtm_owl/ur_urinary_system_test_numeric_result_in_standard_units_quantitative_value_1> <https://w3id.org/biolink/has_numeric_value> "100.0".
<https://w3id.org/c-path/biolink_sdtm_owl/ur_urinary_system_test_numeric_result_in_standard_units_quantitative_value_2> <http://www.w3.org/1999/02/22-rdf-syntax-ns#type> <https://w3id.org/biolink/QuantityValue>.
<https://w3id.org/c-path/biolink_sdtm_owl/ur_urinary_system_test_numeric_result_in_standard_units_quantitative_value_2> <https://w3id.org/c-path/biolink_sdtm_owl/STRESU> "mL".
<https://w3id.org/c-path/biolink_sdtm_owl/ur_urinary_system_test_numeric_result_in_standard_units_quantitative_value_2> <https://w3id.org/biolink/has_numeric_value> "100.11".
<https://w3id.org/c-path/biolink_sdtm_owl/ur_urinary_system_test_numeric_result_in_standard_units_quantitative_value_3> <http://www.w3.org/1999/02/22-rdf-syntax-ns#type> <https://w3id.org/biolink/QuantityValue>.
<https://w3id.org/c-path/biolink_sdtm_owl/ur_urinary_system_test_numeric_result_in_standard_units_quantitative_value_3> <https://w3id.org/c-path/biolink_sdtm_owl/STRESU> "mL".
<https://w3id.org/c-path/biolink_sdtm_owl/ur_urinary_system_test_numeric_result_in_standard_units_quantitative_value_3> <https://w3id.org/biolink/has_numeric_value> "100.11".
<https://w3id.org/c-path/biolink_sdtm_owl/ur_urinary_system_test_numeric_result_in_original_units_1> <http://www.w3.org/1999/02/22-rdf-syntax-ns#type> <https://w3id.org/c-path/biolink_sdtm_owl/>.
<https://w3id.org/c-path/biolink_sdtm_owl/ur_urinary_system_test_numeric_result_in_original_units_1> <https://w3id.org/biolink/has_attribute> <https://w3id.org/c-path/biolink_sdtm_owl/ur_urinary_system_test_numeric_result_in_original_units_attribute_1>.
<https://w3id.org/c-path/biolink_sdtm_owl/ur_urinary_system_test_numeric_result_in_original_units_2> <http://www.w3.org/1999/02/22-rdf-syntax-ns#type> <https://w3id.org/c-path/biolink_sdtm_owl/>.
<https://w3id.org/c-path/biolink_sdtm_owl/ur_urinary_system_test_numeric_result_in_original_units_2> <https://w3id.org/biolink/has_attribute> <https://w3id.org/c-path/biolink_sdtm_owl/ur_urinary_system_test_numeric_result_in_original_units_attribute_2>.
<https://w3id.org/c-path/biolink_sdtm_owl/ur_urinary_system_test_numeric_result_in_original_units_3> <http://www.w3.org/1999/02/22-rdf-syntax-ns#type> <https://w3id.org/c-path/biolink_sdtm_owl/>.
<https://w3id.org/c-path/biolink_sdtm_owl/ur_urinary_system_test_numeric_result_in_original_units_3> <https://w3id.org/biolink/has_attribute> <https://w3id.org/c-path/biolink_sdtm_owl/ur_urinary_system_test_numeric_result_in_original_units_attribute_3>.
<https://w3id.org/c-path/biolink_sdtm_owl/ur_urinary_system_test_numeric_result_in_original_units_attribute_1> <http://www.w3.org/1999/02/22-rdf-syntax-ns#type> <https://w3id.org/biolink/Attribute>.
<https://w3id.org/c-path/biolink_sdtm_owl/ur_urinary_system_test_numeric_result_in_original_units_attribute_1> <https://w3id.org/biolink/has_quantitative_value> <https://w3id.org/c-path/biolink_sdtm_owl/ur_urinary_system_test_numeric_result_in_original_units_quantitative_value_1>.
<https://w3id.org/c-path/biolink_sdtm_owl/ur_urinary_system_test_numeric_result_in_original_units_attribute_2> <http://www.w3.org/1999/02/22-rdf-syntax-ns#type> <https://w3id.org/biolink/Attribute>.
<https://w3id.org/c-path/biolink_sdtm_owl/ur_urinary_system_test_numeric_result_in_original_units_attribute_2> <https://w3id.org/biolink/has_quantitative_value> <https://w3id.org/c-path/biolink_sdtm_owl/ur_urinary_system_test_numeric_result_in_original_units_quantitative_value_2>.
<https://w3id.org/c-path/biolink_sdtm_owl/ur_urinary_system_test_numeric_result_in_original_units_attribute_3> <http://www.w3.org/1999/02/22-rdf-syntax-ns#type> <https://w3id.org/biolink/Attribute>.
<https://w3id.org/c-path/biolink_sdtm_owl/ur_urinary_system_test_numeric_result_in_original_units_attribute_3> <https://w3id.org/biolink/has_quantitative_value> <https://w3id.org/c-path/biolink_sdtm_owl/ur_urinary_system_test_numeric_result_in_original_units_quantitative_value_3>.
<https://w3id.org/c-path/biolink_sdtm_owl/ur_urinary_system_test_numeric_result_in_original_units_quantitative_value_1> <http://www.w3.org/1999/02/22-rdf-syntax-ns#type> <https://w3id.org/biolink/QuantityValue>.
<https://w3id.org/c-path/biolink_sdtm_owl/ur_urinary_system_test_numeric_result_in_original_units_quantitative_value_1> <https://w3id.org/c-path/biolink_sdtm_owl/ORRESU> "mL".
<https://w3id.org/c-path/biolink_sdtm_owl/ur_urinary_system_test_numeric_result_in_original_units_quantitative_value_1> <https://w3id.org/biolink/has_numeric_value> "100.0".
<https://w3id.org/c-path/biolink_sdtm_owl/ur_urinary_system_test_numeric_result_in_original_units_quantitative_value_2> <http://www.w3.org/1999/02/22-rdf-syntax-ns#type> <https://w3id.org/biolink/QuantityValue>.
<https://w3id.org/c-path/biolink_sdtm_owl/ur_urinary_system_test_numeric_result_in_original_units_quantitative_value_2> <https://w3id.org/c-path/biolink_sdtm_owl/ORRESU> "mL".
<https://w3id.org/c-path/biolink_sdtm_owl/ur_urinary_system_test_numeric_result_in_original_units_quantitative_value_2> <https://w3id.org/biolink/has_numeric_value> "100.11".
<https://w3id.org/c-path/biolink_sdtm_owl/ur_urinary_system_test_numeric_result_in_original_units_quantitative_value_3> <http://www.w3.org/1999/02/22-rdf-syntax-ns#type> <https://w3id.org/biolink/QuantityValue>.
<https://w3id.org/c-path/biolink_sdtm_owl/ur_urinary_system_test_numeric_result_in_original_units_quantitative_value_3> <https://w3id.org/c-path/biolink_sdtm_owl/ORRESU> "mL".
<https://w3id.org/c-path/biolink_sdtm_owl/ur_urinary_system_test_numeric_result_in_original_units_quantitative_value_3> <https://w3id.org/biolink/has_numeric_value> "100.11".
<https://w3id.org/c-path/biolink_sdtm_owl/ur_urinary_system_test_character_result_in_standard_format_1> <http://www.w3.org/1999/02/22-rdf-syntax-ns#type> <https://w3id.org/c-path/biolink_sdtm_owl/>.
<https://w3id.org/c-path/biolink_sdtm_owl/ur_urinary_system_test_character_result_in_standard_format_1> <https://w3id.org/biolink/has_attribute> <https://w3id.org/c-path/biolink_sdtm_owl/ur_urinary_system_test_character_result_in_standard_format_attribute_1>.
<https://w3id.org/c-path/biolink_sdtm_owl/ur_urinary_system_test_character_result_in_standard_format_2> <http://www.w3.org/1999/02/22-rdf-syntax-ns#type> <https://w3id.org/c-path/biolink_sdtm_owl/>.
<https://w3id.org/c-path/biolink_sdtm_owl/ur_urinary_system_test_character_result_in_standard_format_2> <https://w3id.org/biolink/has_attribute> <https://w3id.org/c-path/biolink_sdtm_owl/ur_urinary_system_test_character_result_in_standard_format_attribute_2>.
<https://w3id.org/c-path/biolink_sdtm_owl/ur_urinary_system_test_character_result_in_standard_format_3> <http://www.w3.org/1999/02/22-rdf-syntax-ns#type> <https://w3id.org/c-path/biolink_sdtm_owl/>.
<https://w3id.org/c-path/biolink_sdtm_owl/ur_urinary_system_test_character_result_in_standard_format_3> <https://w3id.org/biolink/has_attribute> <https://w3id.org/c-path/biolink_sdtm_owl/ur_urinary_system_test_character_result_in_standard_format_attribute_3>.
<https://w3id.org/c-path/biolink_sdtm_owl/ur_urinary_system_test_character_result_in_standard_format_attribute_1> <http://www.w3.org/1999/02/22-rdf-syntax-ns#type> <https://w3id.org/biolink/Attribute>.
<https://w3id.org/c-path/biolink_sdtm_owl/ur_urinary_system_test_character_result_in_standard_format_attribute_1> <https://w3id.org/biolink/has_qualitative_value> "100.0".
<https://w3id.org/c-path/biolink_sdtm_owl/ur_urinary_system_test_character_result_in_standard_format_attribute_2> <http://www.w3.org/1999/02/22-rdf-syntax-ns#type> <https://w3id.org/biolink/Attribute>.
<https://w3id.org/c-path/biolink_sdtm_owl/ur_urinary_system_test_character_result_in_standard_format_attribute_2> <https://w3id.org/biolink/has_qualitative_value> "100.11".
<https://w3id.org/c-path/biolink_sdtm_owl/ur_urinary_system_test_character_result_in_standard_format_attribute_3> <http://www.w3.org/1999/02/22-rdf-syntax-ns#type> <https://w3id.org/biolink/Attribute>.
<https://w3id.org/c-path/biolink_sdtm_owl/ur_urinary_system_test_character_result_in_standard_format_attribute_3> <https://w3id.org/biolink/has_qualitative_value> "100.11".
