@prefix rr: <http://www.w3.org/ns/r2rml#>.
@prefix rdf: <http://www.w3.org/1999/02/22-rdf-syntax-ns#>.
@prefix rdfs: <http://www.w3.org/2000/01/rdf-schema#>.
@prefix fnml: <http://semweb.mmlab.be/ns/fnml#>.
@prefix fno: <https://w3id.org/function/ontology#>.
@prefix d2rq: <http://www.wiwiss.fu-berlin.de/suhl/bizer/D2RQ/0.1#>.
@prefix void: <http://rdfs.org/ns/void#>.
@prefix dc: <http://purl.org/dc/terms/>.
@prefix foaf: <http://xmlns.com/foaf/0.1/>.
@prefix rml: <http://semweb.mmlab.be/ns/rml#>.
@prefix ql: <http://semweb.mmlab.be/ns/ql#>.
@prefix : <http://mapping.example.com/>.
@prefix sdtm: <https://w3id.org/c-path/biolink_sdtm_owl/>.
@prefix biolink: <https://w3id.org/biolink/>.
@prefix obo: <http://purl.obolibrary.org/obo/>.

:rules_000 a void:Dataset;
    void:exampleResource :map_subject_000.
:map_subject_000 rml:logicalSource :source_000.
:source_000 a rml:LogicalSource;
    rml:source "data_mapping/sample_data/dm.csv";
    rml:referenceFormulation ql:CSV.
:map_subject_000 a rr:TriplesMap;
    rdfs:label "subject".
:s_000 a rr:SubjectMap.
:map_subject_000 rr:subjectMap :s_000.
:s_000 rr:template "https://w3id.org/c-path/biolink_sdtm_owl/subject_{usubjid}".
:pom_000 a rr:PredicateObjectMap.
:map_subject_000 rr:predicateObjectMap :pom_000.
:pm_000 a rr:PredicateMap.
:pom_000 rr:predicateMap :pm_000.
:pm_000 rr:constant rdf:type.
:pom_000 rr:objectMap :om_000.
:om_000 a rr:ObjectMap;
    rr:constant "https://w3id.org/c-path/biolink_sdtm_owl/SUBJECT";
    rr:termType rr:IRI.
:pom_001 a rr:PredicateObjectMap.
:map_subject_000 rr:predicateObjectMap :pom_001.
:pm_001 a rr:PredicateMap.
:pom_001 rr:predicateMap :pm_001.
:pm_001 rr:constant sdtm:USUBJID.
:pom_001 rr:objectMap :om_001.
:om_001 a rr:ObjectMap;
    rml:reference "usubjid";
    rr:termType rr:Literal.
:pom_002 a rr:PredicateObjectMap.
:map_subject_000 rr:predicateObjectMap :pom_002.
:pm_002 a rr:PredicateMap.
:pom_002 rr:predicateMap :pm_002.
:pm_002 rr:constant biolink:has_attribute.
:pom_002 rr:objectMap :om_002.
:pom_003 a rr:PredicateObjectMap.
:map_subject_000 rr:predicateObjectMap :pom_003.
:pm_003 a rr:PredicateMap.
:pom_003 rr:predicateMap :pm_003.
:pm_003 rr:constant biolink:has_attribute.
:pom_003 rr:objectMap :om_003.
:rules_000 void:exampleResource :map_study_site_000.
:map_study_site_000 rml:logicalSource :source_001.
:source_001 a rml:LogicalSource;
    rml:source "data_mapping/sample_data/dm.csv";
    rml:referenceFormulation ql:CSV.
:map_study_site_000 a rr:TriplesMap;
    rdfs:label "study_site".
:s_001 a rr:SubjectMap.
:map_study_site_000 rr:subjectMap :s_001.
:s_001 rr:template "https://w3id.org/c-path/biolink_sdtm_owl/site_{siteid}".
:pom_004 a rr:PredicateObjectMap.
:map_study_site_000 rr:predicateObjectMap :pom_004.
:pm_004 a rr:PredicateMap.
:pom_004 rr:predicateMap :pm_004.
:pm_004 rr:constant rdf:type.
:pom_004 rr:objectMap :om_004.
:om_004 a rr:ObjectMap;
    rr:constant "https://w3id.org/c-path/biolink_sdtm_owl/STUDYSITE";
    rr:termType rr:IRI.
:pom_005 a rr:PredicateObjectMap.
:map_study_site_000 rr:predicateObjectMap :pom_005.
:pm_005 a rr:PredicateMap.
:pom_005 rr:predicateMap :pm_005.
:pm_005 rr:constant sdtm:SITEID.
:pom_005 rr:objectMap :om_005.
:om_005 a rr:ObjectMap;
    rml:reference "siteid";
    rr:termType rr:Literal.
:rules_000 void:exampleResource :map_study_000.
:map_study_000 rml:logicalSource :source_002.
:source_002 a rml:LogicalSource;
    rml:source "data_mapping/sample_data/dm.csv";
    rml:referenceFormulation ql:CSV.
:map_study_000 a rr:TriplesMap;
    rdfs:label "study".
:s_002 a rr:SubjectMap.
:map_study_000 rr:subjectMap :s_002.
:s_002 rr:template "https://w3id.org/c-path/biolink_sdtm_owl/study_{studyid}".
:pom_006 a rr:PredicateObjectMap.
:map_study_000 rr:predicateObjectMap :pom_006.
:pm_006 a rr:PredicateMap.
:pom_006 rr:predicateMap :pm_006.
:pm_006 rr:constant rdf:type.
:pom_006 rr:objectMap :om_006.
:om_006 a rr:ObjectMap;
    rr:constant "https://w3id.org/c-path/biolink_sdtm_owl/CLINSTUDY";
    rr:termType rr:IRI.
:pom_007 a rr:PredicateObjectMap.
:map_study_000 rr:predicateObjectMap :pom_007.
:pm_007 a rr:PredicateMap.
:pom_007 rr:predicateMap :pm_007.
:pm_007 rr:constant sdtm:STUDYID.
:pom_007 rr:objectMap :om_007.
:om_007 a rr:ObjectMap;
    rml:reference "studyid";
    rr:termType rr:Literal.
:rules_000 void:exampleResource :map_study_arm_000.
:map_study_arm_000 rml:logicalSource :source_003.
:source_003 a rml:LogicalSource;
    rml:source "data_mapping/sample_data/dm.csv";
    rml:referenceFormulation ql:CSV.
:map_study_arm_000 a rr:TriplesMap;
    rdfs:label "study_arm".
:s_003 a rr:SubjectMap.
:map_study_arm_000 rr:subjectMap :s_003.
:s_003 rr:template "https://w3id.org/c-path/biolink_sdtm_owl/arm_{armcd}".
:pom_008 a rr:PredicateObjectMap.
:map_study_arm_000 rr:predicateObjectMap :pom_008.
:pm_008 a rr:PredicateMap.
:pom_008 rr:predicateMap :pm_008.
:pm_008 rr:constant rdf:type.
:pom_008 rr:objectMap :om_008.
:om_008 a rr:ObjectMap;
    rr:constant "https://w3id.org/c-path/biolink_sdtm_owl/STUDYARM";
    rr:termType rr:IRI.
:pom_009 a rr:PredicateObjectMap.
:map_study_arm_000 rr:predicateObjectMap :pom_009.
:pm_009 a rr:PredicateMap.
:pom_009 rr:predicateMap :pm_009.
:pm_009 rr:constant sdtm:ARMCD.
:pom_009 rr:objectMap :om_009.
:om_009 a rr:ObjectMap;
    rml:reference "armcd";
    rr:termType rr:Literal.
:pom_010 a rr:PredicateObjectMap.
:map_study_arm_000 rr:predicateObjectMap :pom_010.
:pm_010 a rr:PredicateMap.
:pom_010 rr:predicateMap :pm_010.
:pm_010 rr:constant sdtm:ARM.
:pom_010 rr:objectMap :om_010.
:om_010 a rr:ObjectMap;
    rml:reference "arm";
    rr:termType rr:Literal.
:pom_011 a rr:PredicateObjectMap.
:map_study_arm_000 rr:predicateObjectMap :pom_011.
:pm_011 a rr:PredicateMap.
:pom_011 rr:predicateMap :pm_011.
:pm_011 rr:constant biolink:part_of.
:pom_011 rr:objectMap :om_011.
:rules_000 void:exampleResource :map_age_000.
:map_age_000 rml:logicalSource :source_004.
:source_004 a rml:LogicalSource;
    rml:source "data_mapping/sample_data/dm.csv";
    rml:referenceFormulation ql:CSV.
:map_age_000 a rr:TriplesMap;
    rdfs:label "age".
:s_004 a rr:SubjectMap.
:map_age_000 rr:subjectMap :s_004.
:s_004 rr:termType rr:BlankNode.
:pom_012 a rr:PredicateObjectMap.
:map_age_000 rr:predicateObjectMap :pom_012.
:pm_012 a rr:PredicateMap.
:pom_012 rr:predicateMap :pm_012.
:pm_012 rr:constant rdf:type.
:pom_012 rr:objectMap :om_012.
:om_012 a rr:ObjectMap;
    rr:constant "https://w3id.org/c-path/biolink_sdtm_owl/AGE";
    rr:termType rr:IRI.
:pom_013 a rr:PredicateObjectMap.
:map_age_000 rr:predicateObjectMap :pom_013.
:pm_013 a rr:PredicateMap.
:pom_013 rr:predicateMap :pm_013.
:pm_013 rr:constant biolink:has_quantitative_value.
:pom_013 rr:objectMap :om_013.
:rules_000 void:exampleResource :map_age_quantitative_value_000.
:map_age_quantitative_value_000 rml:logicalSource :source_005.
:source_005 a rml:LogicalSource;
    rml:source "data_mapping/sample_data/dm.csv";
    rml:referenceFormulation ql:CSV.
:map_age_quantitative_value_000 a rr:TriplesMap;
    rdfs:label "age_quantitative_value".
:s_005 a rr:SubjectMap.
:map_age_quantitative_value_000 rr:subjectMap :s_005.
:s_005 rr:termType rr:BlankNode.
:pom_014 a rr:PredicateObjectMap.
:map_age_quantitative_value_000 rr:predicateObjectMap :pom_014.
:pm_014 a rr:PredicateMap.
:pom_014 rr:predicateMap :pm_014.
:pm_014 rr:constant rdf:type.
:pom_014 rr:objectMap :om_014.
:om_014 a rr:ObjectMap;
    rr:constant "https://w3id.org/biolink/QuantityValue";
    rr:termType rr:IRI.
:pom_015 a rr:PredicateObjectMap.
:map_age_quantitative_value_000 rr:predicateObjectMap :pom_015.
:pm_015 a rr:PredicateMap.
:pom_015 rr:predicateMap :pm_015.
:pm_015 rr:constant biolink:has_unit.
:pom_015 rr:objectMap :om_015.
:om_015 a rr:ObjectMap;
    rml:reference "ageu";
    rr:termType rr:Literal.
:pom_016 a rr:PredicateObjectMap.
:map_age_quantitative_value_000 rr:predicateObjectMap :pom_016.
:pm_016 a rr:PredicateMap.
:pom_016 rr:predicateMap :pm_016.
:pm_016 rr:constant biolink:has_numeric_value.
:pom_016 rr:objectMap :om_016.
:om_016 a rr:ObjectMap;
    rml:reference "age";
    rr:termType rr:Literal;
    rr:datatype <http://www.w3.org/2001/XMLSchema#integer>.
:rules_000 void:exampleResource :map_sex_000.
:map_sex_000 rml:logicalSource :source_006.
:source_006 a rml:LogicalSource;
    rml:source "data_mapping/sample_data/dm.csv";
    rml:referenceFormulation ql:CSV.
:map_sex_000 a rr:TriplesMap;
    rdfs:label "sex".
:s_006 a rr:SubjectMap.
:map_sex_000 rr:subjectMap :s_006.
:s_006 rr:termType rr:BlankNode.
:pom_017 a rr:PredicateObjectMap.
:map_sex_000 rr:predicateObjectMap :pom_017.
:pm_017 a rr:PredicateMap.
:pom_017 rr:predicateMap :pm_017.
:pm_017 rr:constant rdf:type.
:pom_017 rr:objectMap :om_017.
:om_017 a rr:ObjectMap;
    rr:constant "https://w3id.org/c-path/biolink_sdtm_owl/SEX";
    rr:termType rr:IRI.
:pom_018 a rr:PredicateObjectMap.
:map_sex_000 rr:predicateObjectMap :pom_018.
:pm_018 a rr:PredicateMap.
:pom_018 rr:predicateMap :pm_018.
:pm_018 rr:constant biolink:has_qualitative_value.
:pom_018 rr:objectMap :om_018.
:om_018 a rr:ObjectMap;
    rml:reference "sex";
    rr:termType rr:Literal.
:rules_000 void:exampleResource :map_lab_test_000.
:map_lab_test_000 rml:logicalSource :source_007.
:source_007 a rml:LogicalSource;
    rml:source "data_mapping/sample_data/lb.csv";
    rml:referenceFormulation ql:CSV.
:map_lab_test_000 a rr:TriplesMap;
    rdfs:label "lab_test".
:s_007 a rr:SubjectMap.
:map_lab_test_000 rr:subjectMap :s_007.
:s_007 rr:template "https://w3id.org/c-path/biolink_sdtm_owl/lbtest_{usubjid}_{row_id}".
:pom_019 a rr:PredicateObjectMap.
:map_lab_test_000 rr:predicateObjectMap :pom_019.
:pm_019 a rr:PredicateMap.
:pom_019 rr:predicateMap :pm_019.
:pm_019 rr:constant rdf:type.
:pom_019 rr:objectMap :om_019.
:om_019 a rr:ObjectMap;
    rml:reference "lbtest_uri";
    rr:termType rr:IRI.
:pom_020 a rr:PredicateObjectMap.
:map_lab_test_000 rr:predicateObjectMap :pom_020.
:pm_020 a rr:PredicateMap.
:pom_020 rr:predicateMap :pm_020.
:pm_020 rr:constant sdtm:in_lb_cat.
:pom_020 rr:objectMap :om_020.
:om_020 a rr:ObjectMap;
    rml:reference "lbcat_uri";
    rr:termType rr:IRI.
:pom_021 a rr:PredicateObjectMap.
:map_lab_test_000 rr:predicateObjectMap :pom_021.
:pm_021 a rr:PredicateMap.
:pom_021 rr:predicateMap :pm_021.
:pm_021 rr:constant sdtm:associated_with_visit.
:pom_021 rr:objectMap :om_021.
:pom_022 a rr:PredicateObjectMap.
:map_lab_test_000 rr:predicateObjectMap :pom_022.
:pm_022 a rr:PredicateMap.
:pom_022 rr:predicateMap :pm_022.
:pm_022 rr:constant biolink:has_input.
:pom_022 rr:objectMap :om_022.
:pom_023 a rr:PredicateObjectMap.
:map_lab_test_000 rr:predicateObjectMap :pom_023.
:pm_023 a rr:PredicateMap.
:pom_023 rr:predicateMap :pm_023.
:pm_023 rr:constant biolink:has_output.
:pom_023 rr:objectMap :om_023.
:pom_024 a rr:PredicateObjectMap.
:map_lab_test_000 rr:predicateObjectMap :pom_024.
:pm_024 a rr:PredicateMap.
:pom_024 rr:predicateMap :pm_024.
:pm_024 rr:constant biolink:has_output.
:pom_024 rr:objectMap :om_024.
:rules_000 void:exampleResource :map_visit_from_lb_source_000.
:map_visit_from_lb_source_000 rml:logicalSource :source_008.
:source_008 a rml:LogicalSource;
    rml:source "data_mapping/sample_data/lb.csv";
    rml:referenceFormulation ql:CSV.
:map_visit_from_lb_source_000 a rr:TriplesMap;
    rdfs:label "visit_from_lb_source".
:s_008 a rr:SubjectMap.
:map_visit_from_lb_source_000 rr:subjectMap :s_008.
:s_008 rr:template "https://w3id.org/c-path/biolink_sdtm_owl/{visit}".
:pom_025 a rr:PredicateObjectMap.
:map_visit_from_lb_source_000 rr:predicateObjectMap :pom_025.
:pm_025 a rr:PredicateMap.
:pom_025 rr:predicateMap :pm_025.
:pm_025 rr:constant rdf:type.
:pom_025 rr:objectMap :om_025.
:om_025 a rr:ObjectMap;
    rr:constant "https://w3id.org/c-path/biolink_sdtm_owl/VISIT";
    rr:termType rr:IRI.
:pom_026 a rr:PredicateObjectMap.
:map_visit_from_lb_source_000 rr:predicateObjectMap :pom_026.
:pm_026 a rr:PredicateMap.
:pom_026 rr:predicateMap :pm_026.
:pm_026 rr:constant sdtm:VISITNAME.
:pom_026 rr:objectMap :om_026.
:om_026 a rr:ObjectMap;
    rml:reference "visit";
    rr:termType rr:Literal.
:pom_027 a rr:PredicateObjectMap.
:map_visit_from_lb_source_000 rr:predicateObjectMap :pom_027.
:pm_027 a rr:PredicateMap.
:pom_027 rr:predicateMap :pm_027.
:pm_027 rr:constant sdtm:DTC.
:pom_027 rr:objectMap :om_027.
:om_027 a rr:ObjectMap;
    rml:reference "lbdy";
    rr:termType rr:Literal.
:rules_000 void:exampleResource :map_specimen_collection_process_000.
:map_specimen_collection_process_000 rml:logicalSource :source_009.
:source_009 a rml:LogicalSource;
    rml:source "data_mapping/sample_data/lb.csv";
    rml:referenceFormulation ql:CSV.
:map_specimen_collection_process_000 a rr:TriplesMap;
    rdfs:label "specimen_collection_process".
:s_009 a rr:SubjectMap.
:map_specimen_collection_process_000 rr:subjectMap :s_009.
:s_009 rr:template "https://w3id.org/c-path/biolink_sdtm_owl/specimen_collection_process_{usubjid}_{row_id}".
:pom_028 a rr:PredicateObjectMap.
:map_specimen_collection_process_000 rr:predicateObjectMap :pom_028.
:pm_028 a rr:PredicateMap.
:pom_028 rr:predicateMap :pm_028.
:pm_028 rr:constant rdf:type.
:pom_028 rr:objectMap :om_028.
:om_028 a rr:ObjectMap;
    rr:constant "https://w3id.org/c-path/biolink_sdtm_owl/SPCCOL";
    rr:termType rr:IRI.
:pom_029 a rr:PredicateObjectMap.
:map_specimen_collection_process_000 rr:predicateObjectMap :pom_029.
:pm_029 a rr:PredicateMap.
:pom_029 rr:predicateMap :pm_029.
:pm_029 rr:constant biolink:has_output.
:pom_029 rr:objectMap :om_029.
:pom_030 a rr:PredicateObjectMap.
:map_specimen_collection_process_000 rr:predicateObjectMap :pom_030.
:pm_030 a rr:PredicateMap.
:pom_030 rr:predicateMap :pm_030.
:pm_030 rr:constant biolink:has_input.
:pom_030 rr:objectMap :om_030.
:rules_000 void:exampleResource :map_specimen_000.
:map_specimen_000 rml:logicalSource :source_010.
:source_010 a rml:LogicalSource;
    rml:source "data_mapping/sample_data/lb.csv";
    rml:referenceFormulation ql:CSV.
:map_specimen_000 a rr:TriplesMap;
    rdfs:label "specimen".
:s_010 a rr:SubjectMap.
:map_specimen_000 rr:subjectMap :s_010.
:s_010 rr:template "https://w3id.org/c-path/biolink_sdtm_owl/specimen_{usubjid}_{row_id}".
:pom_031 a rr:PredicateObjectMap.
:map_specimen_000 rr:predicateObjectMap :pom_031.
:pm_031 a rr:PredicateMap.
:pom_031 rr:predicateMap :pm_031.
:pm_031 rr:constant rdf:type.
:pom_031 rr:objectMap :om_031.
:om_031 a rr:ObjectMap;
    rml:reference "lbspec_uri";
    rr:termType rr:IRI.
:rules_000 void:exampleResource :map_lab_test_reference_range_in_original_units_000.
:map_lab_test_reference_range_in_original_units_000 rml:logicalSource :source_011.
:source_011 a rml:LogicalSource;
    rml:source "data_mapping/sample_data/lb.csv";
    rml:referenceFormulation ql:CSV.
:map_lab_test_reference_range_in_original_units_000 a rr:TriplesMap;
    rdfs:label "lab_test_reference_range_in_original_units".
:s_011 a rr:SubjectMap.
:map_lab_test_reference_range_in_original_units_000 rr:subjectMap :s_011.
:s_011 rr:termType rr:BlankNode.
:pom_032 a rr:PredicateObjectMap.
:map_lab_test_reference_range_in_original_units_000 rr:predicateObjectMap :pom_032.
:pm_032 a rr:PredicateMap.
:pom_032 rr:predicateMap :pm_032.
:pm_032 rr:constant rdf:type.
:pom_032 rr:objectMap :om_032.
:om_032 a rr:ObjectMap;
    rr:constant "https://w3id.org/c-path/biolink_sdtm_owl/LBORRNG";
    rr:termType rr:IRI.
:pom_033 a rr:PredicateObjectMap.
:map_lab_test_reference_range_in_original_units_000 rr:predicateObjectMap :pom_033.
:pm_033 a rr:PredicateMap.
:pom_033 rr:predicateMap :pm_033.
:pm_033 rr:constant sdtm:LBORNRLO.
:pom_033 rr:objectMap :om_033.
:om_033 a rr:ObjectMap;
    rml:reference "lbornrlo";
    rr:termType rr:Literal.
:pom_034 a rr:PredicateObjectMap.
:map_lab_test_reference_range_in_original_units_000 rr:predicateObjectMap :pom_034.
:pm_034 a rr:PredicateMap.
:pom_034 rr:predicateMap :pm_034.
:pm_034 rr:constant sdtm:LBORNRHI.
:pom_034 rr:objectMap :om_034.
:om_034 a rr:ObjectMap;
    rml:reference "lbornrhi";
    rr:termType rr:Literal.
:pom_035 a rr:PredicateObjectMap.
:map_lab_test_reference_range_in_original_units_000 rr:predicateObjectMap :pom_035.
:pm_035 a rr:PredicateMap.
:pom_035 rr:predicateMap :pm_035.
:pm_035 rr:constant obo:IAO_0000136.
:pom_035 rr:objectMap :om_035.
:rules_000 void:exampleResource :map_lab_test_reference_range_in_standard_units_000.
:map_lab_test_reference_range_in_standard_units_000 rml:logicalSource :source_012.
:source_012 a rml:LogicalSource;
    rml:source "data_mapping/sample_data/lb.csv";
    rml:referenceFormulation ql:CSV.
:map_lab_test_reference_range_in_standard_units_000 a rr:TriplesMap;
    rdfs:label "lab_test_reference_range_in_standard_units".
:s_012 a rr:SubjectMap.
:map_lab_test_reference_range_in_standard_units_000 rr:subjectMap :s_012.
:s_012 rr:termType rr:BlankNode.
:pom_036 a rr:PredicateObjectMap.
:map_lab_test_reference_range_in_standard_units_000 rr:predicateObjectMap :pom_036.
:pm_036 a rr:PredicateMap.
:pom_036 rr:predicateMap :pm_036.
:pm_036 rr:constant rdf:type.
:pom_036 rr:objectMap :om_036.
:om_036 a rr:ObjectMap;
    rr:constant "https://w3id.org/c-path/biolink_sdtm_owl/LBSTRNG";
    rr:termType rr:IRI.
:pom_037 a rr:PredicateObjectMap.
:map_lab_test_reference_range_in_standard_units_000 rr:predicateObjectMap :pom_037.
:pm_037 a rr:PredicateMap.
:pom_037 rr:predicateMap :pm_037.
:pm_037 rr:constant sdtm:LBSTNRLO.
:pom_037 rr:objectMap :om_037.
:om_037 a rr:ObjectMap;
    rml:reference "lbstnrlo";
    rr:termType rr:Literal.
:pom_038 a rr:PredicateObjectMap.
:map_lab_test_reference_range_in_standard_units_000 rr:predicateObjectMap :pom_038.
:pm_038 a rr:PredicateMap.
:pom_038 rr:predicateMap :pm_038.
:pm_038 rr:constant sdtm:LBSTNRHI.
:pom_038 rr:objectMap :om_038.
:om_038 a rr:ObjectMap;
    rml:reference "lbstnrhi";
    rr:termType rr:Literal.
:pom_039 a rr:PredicateObjectMap.
:map_lab_test_reference_range_in_standard_units_000 rr:predicateObjectMap :pom_039.
:pm_039 a rr:PredicateMap.
:pom_039 rr:predicateMap :pm_039.
:pm_039 rr:constant obo:IAO_0000136.
:pom_039 rr:objectMap :om_039.
:rules_000 void:exampleResource :map_lab_test_numeric_result_in_standard_units_000.
:map_lab_test_numeric_result_in_standard_units_000 rml:logicalSource :source_013.
:source_013 a rml:LogicalSource;
    rml:source "data_mapping/sample_data/lb.csv";
    rml:referenceFormulation ql:CSV.
:map_lab_test_numeric_result_in_standard_units_000 a rr:TriplesMap;
    rdfs:label "lab_test_numeric_result_in_standard_units".
:s_013 a rr:SubjectMap.
:map_lab_test_numeric_result_in_standard_units_000 rr:subjectMap :s_013.
:s_013 rr:termType rr:BlankNode.
:pom_040 a rr:PredicateObjectMap.
:map_lab_test_numeric_result_in_standard_units_000 rr:predicateObjectMap :pom_040.
:pm_040 a rr:PredicateMap.
:pom_040 rr:predicateMap :pm_040.
:pm_040 rr:constant rdf:type.
:pom_040 rr:objectMap :om_040.
:om_040 a rr:ObjectMap;
    rr:constant "https://w3id.org/c-path/biolink_sdtm_owl/LBSTRESN";
    rr:termType rr:IRI.
:pom_041 a rr:PredicateObjectMap.
:map_lab_test_numeric_result_in_standard_units_000 rr:predicateObjectMap :pom_041.
:pm_041 a rr:PredicateMap.
:pom_041 rr:predicateMap :pm_041.
:pm_041 rr:constant biolink:has_attribute.
:pom_041 rr:objectMap :om_041.
:rules_000 void:exampleResource :map_lab_test_numeric_result_in_standard_units_attribute_000.
:map_lab_test_numeric_result_in_standard_units_attribute_000 rml:logicalSource :source_014.
:source_014 a rml:LogicalSource;
    rml:source "data_mapping/sample_data/lb.csv";
    rml:referenceFormulation ql:CSV.
:map_lab_test_numeric_result_in_standard_units_attribute_000 a rr:TriplesMap;
    rdfs:label "lab_test_numeric_result_in_standard_units_attribute".
:s_014 a rr:SubjectMap.
:map_lab_test_numeric_result_in_standard_units_attribute_000 rr:subjectMap :s_014.
:s_014 rr:termType rr:BlankNode.
:pom_042 a rr:PredicateObjectMap.
:map_lab_test_numeric_result_in_standard_units_attribute_000 rr:predicateObjectMap :pom_042.
:pm_042 a rr:PredicateMap.
:pom_042 rr:predicateMap :pm_042.
:pm_042 rr:constant rdf:type.
:pom_042 rr:objectMap :om_042.
:om_042 a rr:ObjectMap;
    rr:constant "https://w3id.org/biolink/Attribute";
    rr:termType rr:IRI.
:pom_043 a rr:PredicateObjectMap.
:map_lab_test_numeric_result_in_standard_units_attribute_000 rr:predicateObjectMap :pom_043.
:pm_043 a rr:PredicateMap.
:pom_043 rr:predicateMap :pm_043.
:pm_043 rr:constant biolink:has_quantitative_value.
:pom_043 rr:objectMap :om_043.
:rules_000 void:exampleResource :map_lab_test_numeric_result_in_standard_units_quantitative_value_000.
:map_lab_test_numeric_result_in_standard_units_quantitative_value_000 rml:logicalSource :source_015.
:source_015 a rml:LogicalSource;
    rml:source "data_mapping/sample_data/lb.csv";
    rml:referenceFormulation ql:CSV.
:map_lab_test_numeric_result_in_standard_units_quantitative_value_000 a rr:TriplesMap;
    rdfs:label "lab_test_numeric_result_in_standard_units_quantitative_value".
:s_015 a rr:SubjectMap.
:map_lab_test_numeric_result_in_standard_units_quantitative_value_000 rr:subjectMap :s_015.
:s_015 rr:termType rr:BlankNode.
:pom_044 a rr:PredicateObjectMap.
:map_lab_test_numeric_result_in_standard_units_quantitative_value_000 rr:predicateObjectMap :pom_044.
:pm_044 a rr:PredicateMap.
:pom_044 rr:predicateMap :pm_044.
:pm_044 rr:constant rdf:type.
:pom_044 rr:objectMap :om_044.
:om_044 a rr:ObjectMap;
    rr:constant "https://w3id.org/biolink/QuantityValue";
    rr:termType rr:IRI.
:pom_045 a rr:PredicateObjectMap.
:map_lab_test_numeric_result_in_standard_units_quantitative_value_000 rr:predicateObjectMap :pom_045.
:pm_045 a rr:PredicateMap.
:pom_045 rr:predicateMap :pm_045.
:pm_045 rr:constant sdtm:STRESU.
:pom_045 rr:objectMap :om_045.
:om_045 a rr:ObjectMap;
    rml:reference "lbstresu";
    rr:termType rr:Literal.
:pom_046 a rr:PredicateObjectMap.
:map_lab_test_numeric_result_in_standard_units_quantitative_value_000 rr:predicateObjectMap :pom_046.
:pm_046 a rr:PredicateMap.
:pom_046 rr:predicateMap :pm_046.
:pm_046 rr:constant biolink:has_numeric_value.
:pom_046 rr:objectMap :om_046.
:om_046 a rr:ObjectMap;
    rml:reference "lbstresn";
    rr:termType rr:Literal.
:rules_000 void:exampleResource :map_lab_test_numeric_result_in_original_units_000.
:map_lab_test_numeric_result_in_original_units_000 rml:logicalSource :source_016.
:source_016 a rml:LogicalSource;
    rml:source "data_mapping/sample_data/lb.csv";
    rml:referenceFormulation ql:CSV.
:map_lab_test_numeric_result_in_original_units_000 a rr:TriplesMap;
    rdfs:label "lab_test_numeric_result_in_original_units".
:s_016 a rr:SubjectMap.
:map_lab_test_numeric_result_in_original_units_000 rr:subjectMap :s_016.
:s_016 rr:termType rr:BlankNode.
:pom_047 a rr:PredicateObjectMap.
:map_lab_test_numeric_result_in_original_units_000 rr:predicateObjectMap :pom_047.
:pm_047 a rr:PredicateMap.
:pom_047 rr:predicateMap :pm_047.
:pm_047 rr:constant rdf:type.
:pom_047 rr:objectMap :om_047.
:om_047 a rr:ObjectMap;
    rr:constant "https://w3id.org/c-path/biolink_sdtm_owl/";
    rr:termType rr:IRI.
:pom_048 a rr:PredicateObjectMap.
:map_lab_test_numeric_result_in_original_units_000 rr:predicateObjectMap :pom_048.
:pm_048 a rr:PredicateMap.
:pom_048 rr:predicateMap :pm_048.
:pm_048 rr:constant biolink:has_attribute.
:pom_048 rr:objectMap :om_048.
:rules_000 void:exampleResource :map_lab_test_numeric_result_in_original_units_attribute_000.
:map_lab_test_numeric_result_in_original_units_attribute_000 rml:logicalSource :source_017.
:source_017 a rml:LogicalSource;
    rml:source "data_mapping/sample_data/lb.csv";
    rml:referenceFormulation ql:CSV.
:map_lab_test_numeric_result_in_original_units_attribute_000 a rr:TriplesMap;
    rdfs:label "lab_test_numeric_result_in_original_units_attribute".
:s_017 a rr:SubjectMap.
:map_lab_test_numeric_result_in_original_units_attribute_000 rr:subjectMap :s_017.
:s_017 rr:termType rr:BlankNode.
:pom_049 a rr:PredicateObjectMap.
:map_lab_test_numeric_result_in_original_units_attribute_000 rr:predicateObjectMap :pom_049.
:pm_049 a rr:PredicateMap.
:pom_049 rr:predicateMap :pm_049.
:pm_049 rr:constant rdf:type.
:pom_049 rr:objectMap :om_049.
:om_049 a rr:ObjectMap;
    rr:constant "https://w3id.org/biolink/Attribute";
    rr:termType rr:IRI.
:pom_050 a rr:PredicateObjectMap.
:map_lab_test_numeric_result_in_original_units_attribute_000 rr:predicateObjectMap :pom_050.
:pm_050 a rr:PredicateMap.
:pom_050 rr:predicateMap :pm_050.
:pm_050 rr:constant biolink:has_quantitative_value.
:pom_050 rr:objectMap :om_050.
:rules_000 void:exampleResource :map_lab_test_numeric_result_in_original_units_quantitative_value_000.
:map_lab_test_numeric_result_in_original_units_quantitative_value_000 rml:logicalSource :source_018.
:source_018 a rml:LogicalSource;
    rml:source "data_mapping/sample_data/lb.csv";
    rml:referenceFormulation ql:CSV.
:map_lab_test_numeric_result_in_original_units_quantitative_value_000 a rr:TriplesMap;
    rdfs:label "lab_test_numeric_result_in_original_units_quantitative_value".
:s_018 a rr:SubjectMap.
:map_lab_test_numeric_result_in_original_units_quantitative_value_000 rr:subjectMap :s_018.
:s_018 rr:termType rr:BlankNode.
:pom_051 a rr:PredicateObjectMap.
:map_lab_test_numeric_result_in_original_units_quantitative_value_000 rr:predicateObjectMap :pom_051.
:pm_051 a rr:PredicateMap.
:pom_051 rr:predicateMap :pm_051.
:pm_051 rr:constant rdf:type.
:pom_051 rr:objectMap :om_051.
:om_051 a rr:ObjectMap;
    rr:constant "https://w3id.org/biolink/QuantityValue";
    rr:termType rr:IRI.
:pom_052 a rr:PredicateObjectMap.
:map_lab_test_numeric_result_in_original_units_quantitative_value_000 rr:predicateObjectMap :pom_052.
:pm_052 a rr:PredicateMap.
:pom_052 rr:predicateMap :pm_052.
:pm_052 rr:constant sdtm:ORRESU.
:pom_052 rr:objectMap :om_052.
:om_052 a rr:ObjectMap;
    rml:reference "lborresu";
    rr:termType rr:Literal.
:pom_053 a rr:PredicateObjectMap.
:map_lab_test_numeric_result_in_original_units_quantitative_value_000 rr:predicateObjectMap :pom_053.
:pm_053 a rr:PredicateMap.
:pom_053 rr:predicateMap :pm_053.
:pm_053 rr:constant biolink:has_numeric_value.
:pom_053 rr:objectMap :om_053.
:om_053 a rr:ObjectMap;
    rml:reference "lbstresn";
    rr:termType rr:Literal.
:rules_000 void:exampleResource :map_urinary_system_test_000.
:map_urinary_system_test_000 rml:logicalSource :source_019.
:source_019 a rml:LogicalSource;
    rml:source "data_mapping/sample_data/ur.csv";
    rml:referenceFormulation ql:CSV.
:map_urinary_system_test_000 a rr:TriplesMap;
    rdfs:label "urinary_system_test".
:s_019 a rr:SubjectMap.
:map_urinary_system_test_000 rr:subjectMap :s_019.
:s_019 rr:template "https://w3id.org/c-path/biolink_sdtm_owl/urtest_{usubjid}_{row_id}".
:pom_054 a rr:PredicateObjectMap.
:map_urinary_system_test_000 rr:predicateObjectMap :pom_054.
:pm_054 a rr:PredicateMap.
:pom_054 rr:predicateMap :pm_054.
:pm_054 rr:constant rdf:type.
:pom_054 rr:objectMap :om_054.
:om_054 a rr:ObjectMap;
    rr:constant "https://w3id.org/c-path/biolink_sdtm_owl/URTEST";
    rr:termType rr:IRI.
:pom_055 a rr:PredicateObjectMap.
:map_urinary_system_test_000 rr:predicateObjectMap :pom_055.
:pm_055 a rr:PredicateMap.
:pom_055 rr:predicateMap :pm_055.
:pm_055 rr:constant sdtm:associated_with_visit.
:pom_055 rr:objectMap :om_055.
:pom_056 a rr:PredicateObjectMap.
:map_urinary_system_test_000 rr:predicateObjectMap :pom_056.
:pm_056 a rr:PredicateMap.
:pom_056 rr:predicateMap :pm_056.
:pm_056 rr:constant biolink:has_output.
:pom_056 rr:objectMap :om_056.
:pom_057 a rr:PredicateObjectMap.
:map_urinary_system_test_000 rr:predicateObjectMap :pom_057.
:pm_057 a rr:PredicateMap.
:pom_057 rr:predicateMap :pm_057.
:pm_057 rr:constant sdtm:has_anatomical_location.
:pom_057 rr:objectMap :om_057.
:pom_058 a rr:PredicateObjectMap.
:map_urinary_system_test_000 rr:predicateObjectMap :pom_058.
:pm_058 a rr:PredicateMap.
:pom_058 rr:predicateMap :pm_058.
:pm_058 rr:constant sdtm:has_anatomical_location.
:pom_058 rr:objectMap :om_058.
:pom_059 a rr:PredicateObjectMap.
:map_urinary_system_test_000 rr:predicateObjectMap :pom_059.
:pm_059 a rr:PredicateMap.
:pom_059 rr:predicateMap :pm_059.
:pm_059 rr:constant sdtm:METHOD.
:pom_059 rr:objectMap :om_059.
:pom_060 a rr:PredicateObjectMap.
:map_urinary_system_test_000 rr:predicateObjectMap :pom_060.
:pm_060 a rr:PredicateMap.
:pom_060 rr:predicateMap :pm_060.
:pm_060 rr:constant biolink:has_output.
:pom_060 rr:objectMap :om_060.
:pom_061 a rr:PredicateObjectMap.
:map_urinary_system_test_000 rr:predicateObjectMap :pom_061.
:pm_061 a rr:PredicateMap.
:pom_061 rr:predicateMap :pm_061.
:pm_061 rr:constant biolink:has_output.
:pom_061 rr:objectMap :om_061.
:pom_062 a rr:PredicateObjectMap.
:map_urinary_system_test_000 rr:predicateObjectMap :pom_062.
:pm_062 a rr:PredicateMap.
:pom_062 rr:predicateMap :pm_062.
:pm_062 rr:constant biolink:has_output.
:pom_062 rr:objectMap :om_062.
:rules_000 void:exampleResource :map_visit_from_ur_source_000.
:map_visit_from_ur_source_000 rml:logicalSource :source_020.
:source_020 a rml:LogicalSource;
    rml:source "data_mapping/sample_data/ur.csv";
    rml:referenceFormulation ql:CSV.
:map_visit_from_ur_source_000 a rr:TriplesMap;
    rdfs:label "visit_from_ur_source".
:s_020 a rr:SubjectMap.
:map_visit_from_ur_source_000 rr:subjectMap :s_020.
:s_020 rr:template "https://w3id.org/c-path/biolink_sdtm_owl/{visit}".
:pom_063 a rr:PredicateObjectMap.
:map_visit_from_ur_source_000 rr:predicateObjectMap :pom_063.
:pm_063 a rr:PredicateMap.
:pom_063 rr:predicateMap :pm_063.
:pm_063 rr:constant rdf:type.
:pom_063 rr:objectMap :om_063.
:om_063 a rr:ObjectMap;
    rr:constant "https://w3id.org/c-path/biolink_sdtm_owl/VISIT";
    rr:termType rr:IRI.
:pom_064 a rr:PredicateObjectMap.
:map_visit_from_ur_source_000 rr:predicateObjectMap :pom_064.
:pm_064 a rr:PredicateMap.
:pom_064 rr:predicateMap :pm_064.
:pm_064 rr:constant sdtm:VISITNAME.
:pom_064 rr:objectMap :om_064.
:om_064 a rr:ObjectMap;
    rml:reference "visit";
    rr:termType rr:Literal.
:pom_065 a rr:PredicateObjectMap.
:map_visit_from_ur_source_000 rr:predicateObjectMap :pom_065.
:pm_065 a rr:PredicateMap.
:pom_065 rr:predicateMap :pm_065.
:pm_065 rr:constant sdtm:VISITNUM.
:pom_065 rr:objectMap :om_065.
:om_065 a rr:ObjectMap;
    rml:reference "visitnum";
    rr:termType rr:Literal.
:pom_066 a rr:PredicateObjectMap.
:map_visit_from_ur_source_000 rr:predicateObjectMap :pom_066.
:pm_066 a rr:PredicateMap.
:pom_066 rr:predicateMap :pm_066.
:pm_066 rr:constant sdtm:DTC.
:pom_066 rr:objectMap :om_066.
:om_066 a rr:ObjectMap;
    rml:reference "urdy";
    rr:termType rr:Literal.
:rules_000 void:exampleResource :map_urinary_system_test_measurement_000.
:map_urinary_system_test_measurement_000 rml:logicalSource :source_021.
:source_021 a rml:LogicalSource;
    rml:source "data_mapping/sample_data/ur.csv";
    rml:referenceFormulation ql:CSV.
:map_urinary_system_test_measurement_000 a rr:TriplesMap;
    rdfs:label "urinary_system_test_measurement".
:s_021 a rr:SubjectMap.
:map_urinary_system_test_measurement_000 rr:subjectMap :s_021.
:s_021 rr:termType rr:BlankNode.
:pom_067 a rr:PredicateObjectMap.
:map_urinary_system_test_measurement_000 rr:predicateObjectMap :pom_067.
:pm_067 a rr:PredicateMap.
:pom_067 rr:predicateMap :pm_067.
:pm_067 rr:constant rdf:type.
:pom_067 rr:objectMap :om_067.
:om_067 a rr:ObjectMap;
    rml:reference "urtest_uri";
    rr:termType rr:IRI.
:rules_000 void:exampleResource :map_urinary_system_test_location_000.
:map_urinary_system_test_location_000 rml:logicalSource :source_022.
:source_022 a rml:LogicalSource;
    rml:source "data_mapping/sample_data/ur.csv";
    rml:referenceFormulation ql:CSV.
:map_urinary_system_test_location_000 a rr:TriplesMap;
    rdfs:label "urinary_system_test_location".
:s_022 a rr:SubjectMap.
:map_urinary_system_test_location_000 rr:subjectMap :s_022.
:s_022 rr:termType rr:BlankNode.
:pom_068 a rr:PredicateObjectMap.
:map_urinary_system_test_location_000 rr:predicateObjectMap :pom_068.
:pm_068 a rr:PredicateMap.
:pom_068 rr:predicateMap :pm_068.
:pm_068 rr:constant rdf:type.
:pom_068 rr:objectMap :om_068.
:om_068 a rr:ObjectMap;
    rml:reference "urloc_uri";
    rr:termType rr:IRI.
:rules_000 void:exampleResource :map_urinary_system_test_laterality_of_anatomical_location_000.
:map_urinary_system_test_laterality_of_anatomical_location_000 rml:logicalSource :source_023.
:source_023 a rml:LogicalSource;
    rml:source "data_mapping/sample_data/ur.csv";
    rml:referenceFormulation ql:CSV.
:map_urinary_system_test_laterality_of_anatomical_location_000 a rr:TriplesMap;
    rdfs:label "urinary_system_test_laterality_of_anatomical_location".
:s_023 a rr:SubjectMap.
:map_urinary_system_test_laterality_of_anatomical_location_000 rr:subjectMap :s_023.
:s_023 rr:termType rr:BlankNode.
:pom_069 a rr:PredicateObjectMap.
:map_urinary_system_test_laterality_of_anatomical_location_000 rr:predicateObjectMap :pom_069.
:pm_069 a rr:PredicateMap.
:pom_069 rr:predicateMap :pm_069.
:pm_069 rr:constant rdf:type.
:pom_069 rr:objectMap :om_069.
:om_069 a rr:ObjectMap;
    rml:reference "urlat_uri";
    rr:termType rr:IRI.
:rules_000 void:exampleResource :map_urinary_system_test_method_000.
:map_urinary_system_test_method_000 rml:logicalSource :source_024.
:source_024 a rml:LogicalSource;
    rml:source "data_mapping/sample_data/ur.csv";
    rml:referenceFormulation ql:CSV.
:map_urinary_system_test_method_000 a rr:TriplesMap;
    rdfs:label "urinary_system_test_method".
:s_024 a rr:SubjectMap.
:map_urinary_system_test_method_000 rr:subjectMap :s_024.
:s_024 rr:termType rr:BlankNode.
:pom_070 a rr:PredicateObjectMap.
:map_urinary_system_test_method_000 rr:predicateObjectMap :pom_070.
:pm_070 a rr:PredicateMap.
:pom_070 rr:predicateMap :pm_070.
:pm_070 rr:constant rdf:type.
:pom_070 rr:objectMap :om_070.
:om_070 a rr:ObjectMap;
    rml:reference "urmethod_uri";
    rr:termType rr:IRI.
:rules_000 void:exampleResource :map_urinary_system_test_numeric_result_in_standard_units_000.
:map_urinary_system_test_numeric_result_in_standard_units_000 rml:logicalSource :source_025.
:source_025 a rml:LogicalSource;
    rml:source "data_mapping/sample_data/ur.csv";
    rml:referenceFormulation ql:CSV.
:map_urinary_system_test_numeric_result_in_standard_units_000 a rr:TriplesMap;
    rdfs:label "urinary_system_test_numeric_result_in_standard_units".
:s_025 a rr:SubjectMap.
:map_urinary_system_test_numeric_result_in_standard_units_000 rr:subjectMap :s_025.
:s_025 rr:termType rr:BlankNode.
:pom_071 a rr:PredicateObjectMap.
:map_urinary_system_test_numeric_result_in_standard_units_000 rr:predicateObjectMap :pom_071.
:pm_071 a rr:PredicateMap.
:pom_071 rr:predicateMap :pm_071.
:pm_071 rr:constant rdf:type.
:pom_071 rr:objectMap :om_071.
:om_071 a rr:ObjectMap;
    rr:constant "https://w3id.org/c-path/biolink_sdtm_owl/URSTRESN";
    rr:termType rr:IRI.
:pom_072 a rr:PredicateObjectMap.
:map_urinary_system_test_numeric_result_in_standard_units_000 rr:predicateObjectMap :pom_072.
:pm_072 a rr:PredicateMap.
:pom_072 rr:predicateMap :pm_072.
:pm_072 rr:constant biolink:has_attribute.
:pom_072 rr:objectMap :om_072.
:rules_000 void:exampleResource :map_urinary_system_test_numeric_result_in_standard_units_attribute_000.
:map_urinary_system_test_numeric_result_in_standard_units_attribute_000 rml:logicalSource :source_026.
:source_026 a rml:LogicalSource;
    rml:source "data_mapping/sample_data/ur.csv";
    rml:referenceFormulation ql:CSV.
:map_urinary_system_test_numeric_result_in_standard_units_attribute_000 a rr:TriplesMap;
    rdfs:label "urinary_system_test_numeric_result_in_standard_units_attribute".
:s_026 a rr:SubjectMap.
:map_urinary_system_test_numeric_result_in_standard_units_attribute_000 rr:subjectMap :s_026.
:s_026 rr:termType rr:BlankNode.
:pom_073 a rr:PredicateObjectMap.
:map_urinary_system_test_numeric_result_in_standard_units_attribute_000 rr:predicateObjectMap :pom_073.
:pm_073 a rr:PredicateMap.
:pom_073 rr:predicateMap :pm_073.
:pm_073 rr:constant rdf:type.
:pom_073 rr:objectMap :om_073.
:om_073 a rr:ObjectMap;
    rr:constant "https://w3id.org/biolink/Attribute";
    rr:termType rr:IRI.
:pom_074 a rr:PredicateObjectMap.
:map_urinary_system_test_numeric_result_in_standard_units_attribute_000 rr:predicateObjectMap :pom_074.
:pm_074 a rr:PredicateMap.
:pom_074 rr:predicateMap :pm_074.
:pm_074 rr:constant biolink:has_quantitative_value.
:pom_074 rr:objectMap :om_074.
:rules_000 void:exampleResource :map_urinary_system_test_numeric_result_in_standard_units_quantitative_value_000.
:map_urinary_system_test_numeric_result_in_standard_units_quantitative_value_000 rml:logicalSource :source_027.
:source_027 a rml:LogicalSource;
    rml:source "data_mapping/sample_data/ur.csv";
    rml:referenceFormulation ql:CSV.
:map_urinary_system_test_numeric_result_in_standard_units_quantitative_value_000 a rr:TriplesMap;
    rdfs:label "urinary_system_test_numeric_result_in_standard_units_quantitative_value".
:s_027 a rr:SubjectMap.
:map_urinary_system_test_numeric_result_in_standard_units_quantitative_value_000 rr:subjectMap :s_027.
:s_027 rr:termType rr:BlankNode.
:pom_075 a rr:PredicateObjectMap.
:map_urinary_system_test_numeric_result_in_standard_units_quantitative_value_000 rr:predicateObjectMap :pom_075.
:pm_075 a rr:PredicateMap.
:pom_075 rr:predicateMap :pm_075.
:pm_075 rr:constant rdf:type.
:pom_075 rr:objectMap :om_075.
:om_075 a rr:ObjectMap;
    rr:constant "https://w3id.org/biolink/QuantityValue";
    rr:termType rr:IRI.
:pom_076 a rr:PredicateObjectMap.
:map_urinary_system_test_numeric_result_in_standard_units_quantitative_value_000 rr:predicateObjectMap :pom_076.
:pm_076 a rr:PredicateMap.
:pom_076 rr:predicateMap :pm_076.
:pm_076 rr:constant sdtm:STRESU.
:pom_076 rr:objectMap :om_076.
:om_076 a rr:ObjectMap;
    rml:reference "urstresu";
    rr:termType rr:Literal.
:pom_077 a rr:PredicateObjectMap.
:map_urinary_system_test_numeric_result_in_standard_units_quantitative_value_000 rr:predicateObjectMap :pom_077.
:pm_077 a rr:PredicateMap.
:pom_077 rr:predicateMap :pm_077.
:pm_077 rr:constant biolink:has_numeric_value.
:pom_077 rr:objectMap :om_077.
:om_077 a rr:ObjectMap;
    rml:reference "urstresn";
    rr:termType rr:Literal.
:rules_000 void:exampleResource :map_urinary_system_test_numeric_result_in_original_units_000.
:map_urinary_system_test_numeric_result_in_original_units_000 rml:logicalSource :source_028.
:source_028 a rml:LogicalSource;
    rml:source "data_mapping/sample_data/ur.csv";
    rml:referenceFormulation ql:CSV.
:map_urinary_system_test_numeric_result_in_original_units_000 a rr:TriplesMap;
    rdfs:label "urinary_system_test_numeric_result_in_original_units".
:s_028 a rr:SubjectMap.
:map_urinary_system_test_numeric_result_in_original_units_000 rr:subjectMap :s_028.
:s_028 rr:termType rr:BlankNode.
:pom_078 a rr:PredicateObjectMap.
:map_urinary_system_test_numeric_result_in_original_units_000 rr:predicateObjectMap :pom_078.
:pm_078 a rr:PredicateMap.
:pom_078 rr:predicateMap :pm_078.
:pm_078 rr:constant rdf:type.
:pom_078 rr:objectMap :om_078.
:om_078 a rr:ObjectMap;
    rr:constant "https://w3id.org/c-path/biolink_sdtm_owl/";
    rr:termType rr:IRI.
:pom_079 a rr:PredicateObjectMap.
:map_urinary_system_test_numeric_result_in_original_units_000 rr:predicateObjectMap :pom_079.
:pm_079 a rr:PredicateMap.
:pom_079 rr:predicateMap :pm_079.
:pm_079 rr:constant biolink:has_attribute.
:pom_079 rr:objectMap :om_079.
:rules_000 void:exampleResource :map_urinary_system_test_numeric_result_in_original_units_attribute_000.
:map_urinary_system_test_numeric_result_in_original_units_attribute_000 rml:logicalSource :source_029.
:source_029 a rml:LogicalSource;
    rml:source "data_mapping/sample_data/ur.csv";
    rml:referenceFormulation ql:CSV.
:map_urinary_system_test_numeric_result_in_original_units_attribute_000 a rr:TriplesMap;
    rdfs:label "urinary_system_test_numeric_result_in_original_units_attribute".
:s_029 a rr:SubjectMap.
:map_urinary_system_test_numeric_result_in_original_units_attribute_000 rr:subjectMap :s_029.
:s_029 rr:termType rr:BlankNode.
:pom_080 a rr:PredicateObjectMap.
:map_urinary_system_test_numeric_result_in_original_units_attribute_000 rr:predicateObjectMap :pom_080.
:pm_080 a rr:PredicateMap.
:pom_080 rr:predicateMap :pm_080.
:pm_080 rr:constant rdf:type.
:pom_080 rr:objectMap :om_080.
:om_080 a rr:ObjectMap;
    rr:constant "https://w3id.org/biolink/Attribute";
    rr:termType rr:IRI.
:pom_081 a rr:PredicateObjectMap.
:map_urinary_system_test_numeric_result_in_original_units_attribute_000 rr:predicateObjectMap :pom_081.
:pm_081 a rr:PredicateMap.
:pom_081 rr:predicateMap :pm_081.
:pm_081 rr:constant biolink:has_quantitative_value.
:pom_081 rr:objectMap :om_081.
:rules_000 void:exampleResource :map_urinary_system_test_numeric_result_in_original_units_quantitative_value_000.
:map_urinary_system_test_numeric_result_in_original_units_quantitative_value_000 rml:logicalSource :source_030.
:source_030 a rml:LogicalSource;
    rml:source "data_mapping/sample_data/ur.csv";
    rml:referenceFormulation ql:CSV.
:map_urinary_system_test_numeric_result_in_original_units_quantitative_value_000 a rr:TriplesMap;
    rdfs:label "urinary_system_test_numeric_result_in_original_units_quantitative_value".
:s_030 a rr:SubjectMap.
:map_urinary_system_test_numeric_result_in_original_units_quantitative_value_000 rr:subjectMap :s_030.
:s_030 rr:termType rr:BlankNode.
:pom_082 a rr:PredicateObjectMap.
:map_urinary_system_test_numeric_result_in_original_units_quantitative_value_000 rr:predicateObjectMap :pom_082.
:pm_082 a rr:PredicateMap.
:pom_082 rr:predicateMap :pm_082.
:pm_082 rr:constant rdf:type.
:pom_082 rr:objectMap :om_082.
:om_082 a rr:ObjectMap;
    rr:constant "https://w3id.org/biolink/QuantityValue";
    rr:termType rr:IRI.
:pom_083 a rr:PredicateObjectMap.
:map_urinary_system_test_numeric_result_in_original_units_quantitative_value_000 rr:predicateObjectMap :pom_083.
:pm_083 a rr:PredicateMap.
:pom_083 rr:predicateMap :pm_083.
:pm_083 rr:constant sdtm:ORRESU.
:pom_083 rr:objectMap :om_083.
:om_083 a rr:ObjectMap;
    rml:reference "urorresu";
    rr:termType rr:Literal.
:pom_084 a rr:PredicateObjectMap.
:map_urinary_system_test_numeric_result_in_original_units_quantitative_value_000 rr:predicateObjectMap :pom_084.
:pm_084 a rr:PredicateMap.
:pom_084 rr:predicateMap :pm_084.
:pm_084 rr:constant biolink:has_numeric_value.
:pom_084 rr:objectMap :om_084.
:om_084 a rr:ObjectMap;
    rml:reference "urorres";
    rr:termType rr:Literal.
:rules_000 void:exampleResource :map_urinary_system_test_character_result_in_standard_format_000.
:map_urinary_system_test_character_result_in_standard_format_000 rml:logicalSource :source_031.
:source_031 a rml:LogicalSource;
    rml:source "data_mapping/sample_data/ur.csv";
    rml:referenceFormulation ql:CSV.
:map_urinary_system_test_character_result_in_standard_format_000 a rr:TriplesMap;
    rdfs:label "urinary_system_test_character_result_in_standard_format".
:s_031 a rr:SubjectMap.
:map_urinary_system_test_character_result_in_standard_format_000 rr:subjectMap :s_031.
:s_031 rr:termType rr:BlankNode.
:pom_085 a rr:PredicateObjectMap.
:map_urinary_system_test_character_result_in_standard_format_000 rr:predicateObjectMap :pom_085.
:pm_085 a rr:PredicateMap.
:pom_085 rr:predicateMap :pm_085.
:pm_085 rr:constant rdf:type.
:pom_085 rr:objectMap :om_085.
:om_085 a rr:ObjectMap;
    rr:constant "https://w3id.org/c-path/biolink_sdtm_owl/";
    rr:termType rr:IRI.
:pom_086 a rr:PredicateObjectMap.
:map_urinary_system_test_character_result_in_standard_format_000 rr:predicateObjectMap :pom_086.
:pm_086 a rr:PredicateMap.
:pom_086 rr:predicateMap :pm_086.
:pm_086 rr:constant biolink:has_attribute.
:pom_086 rr:objectMap :om_086.
:rules_000 void:exampleResource :map_urinary_system_test_character_result_in_standard_format_attribute_000.
:map_urinary_system_test_character_result_in_standard_format_attribute_000 rml:logicalSource :source_032.
:source_032 a rml:LogicalSource;
    rml:source "data_mapping/sample_data/ur.csv";
    rml:referenceFormulation ql:CSV.
:map_urinary_system_test_character_result_in_standard_format_attribute_000 a rr:TriplesMap;
    rdfs:label "urinary_system_test_character_result_in_standard_format_attribute".
:s_032 a rr:SubjectMap.
:map_urinary_system_test_character_result_in_standard_format_attribute_000 rr:subjectMap :s_032.
:s_032 rr:termType rr:BlankNode.
:pom_087 a rr:PredicateObjectMap.
:map_urinary_system_test_character_result_in_standard_format_attribute_000 rr:predicateObjectMap :pom_087.
:pm_087 a rr:PredicateMap.
:pom_087 rr:predicateMap :pm_087.
:pm_087 rr:constant rdf:type.
:pom_087 rr:objectMap :om_087.
:om_087 a rr:ObjectMap;
    rr:constant "https://w3id.org/biolink/Attribute";
    rr:termType rr:IRI.
:pom_088 a rr:PredicateObjectMap.
:map_urinary_system_test_character_result_in_standard_format_attribute_000 rr:predicateObjectMap :pom_088.
:pm_088 a rr:PredicateMap.
:pom_088 rr:predicateMap :pm_088.
:pm_088 rr:constant biolink:has_qualitative_value.
:pom_088 rr:objectMap :om_088.
:om_088 a rr:ObjectMap;
    rml:reference "urstresc";
    rr:termType rr:Literal.
:om_002 a rr:ObjectMap;
    rr:parentTriplesMap :map_age_000;
    rr:joinCondition :jc_000.
:jc_000 rr:child "subjid";
    rr:parent "subjid".
:om_003 a rr:ObjectMap;
    rr:parentTriplesMap :map_sex_000;
    rr:joinCondition :jc_001.
:jc_001 rr:child "subjid";
    rr:parent "subjid".
:om_011 a rr:ObjectMap;
    rr:parentTriplesMap :map_study_000;
    rr:joinCondition :jc_002.
:jc_002 rr:child "studyid";
    rr:parent "studyid".
:om_013 a rr:ObjectMap;
    rr:parentTriplesMap :map_age_quantitative_value_000;
    rr:joinCondition :jc_003.
:jc_003 rr:child "subjid";
    rr:parent "subjid".
:om_021 a rr:ObjectMap;
    rr:parentTriplesMap :map_visit_from_lb_source_000;
    rr:joinCondition :jc_004.
:jc_004 rr:child "row_id";
    rr:parent "row_id".
:om_022 a rr:ObjectMap;
    rr:parentTriplesMap :map_specimen_000;
    rr:joinCondition :jc_005.
:jc_005 rr:child "row_id";
    rr:parent "row_id".
:om_023 a rr:ObjectMap;
    rr:parentTriplesMap :map_lab_test_numeric_result_in_standard_units_000;
    rr:joinCondition :jc_006.
:jc_006 rr:child "row_id";
    rr:parent "row_id".
:om_024 a rr:ObjectMap;
    rr:parentTriplesMap :map_lab_test_numeric_result_in_original_units_000;
    rr:joinCondition :jc_007.
:jc_007 rr:child "row_id";
    rr:parent "row_id".
:om_029 a rr:ObjectMap;
    rr:parentTriplesMap :map_specimen_000;
    rr:joinCondition :jc_008.
:jc_008 rr:child "row_id";
    rr:parent "row_id".
:om_030 a rr:ObjectMap;
    rr:parentTriplesMap :map_subject_000;
    rr:joinCondition :jc_009.
:jc_009 rr:child "usubjid";
    rr:parent "usubjid".
:om_035 a rr:ObjectMap;
    rr:parentTriplesMap :map_lab_test_000;
    rr:joinCondition :jc_010.
:jc_010 rr:child "row_id";
    rr:parent "row_id".
:om_039 a rr:ObjectMap;
    rr:parentTriplesMap :map_lab_test_000;
    rr:joinCondition :jc_011.
:jc_011 rr:child "row_id";
    rr:parent "row_id".
:om_041 a rr:ObjectMap;
    rr:parentTriplesMap :map_lab_test_numeric_result_in_standard_units_attribute_000;
    rr:joinCondition :jc_012.
:jc_012 rr:child "row_id";
    rr:parent "row_id".
:om_043 a rr:ObjectMap;
    rr:parentTriplesMap :map_lab_test_numeric_result_in_standard_units_quantitative_value_000;
    rr:joinCondition :jc_013.
:jc_013 rr:child "row_id";
    rr:parent "row_id".
:om_048 a rr:ObjectMap;
    rr:parentTriplesMap :map_lab_test_numeric_result_in_original_units_attribute_000;
    rr:joinCondition :jc_014.
:jc_014 rr:child "row_id";
    rr:parent "row_id".
:om_050 a rr:ObjectMap;
    rr:parentTriplesMap :map_lab_test_numeric_result_in_original_units_quantitative_value_000;
    rr:joinCondition :jc_015.
:jc_015 rr:child "row_id";
    rr:parent "row_id".
:om_055 a rr:ObjectMap;
    rr:parentTriplesMap :map_visit_from_ur_source_000;
    rr:joinCondition :jc_016.
:jc_016 rr:child "row_id";
    rr:parent "row_id".
:om_056 a rr:ObjectMap;
    rr:parentTriplesMap :map_urinary_system_test_measurement_000;
    rr:joinCondition :jc_017.
:jc_017 rr:child "row_id";
    rr:parent "row_id".
:om_057 a rr:ObjectMap;
    rr:parentTriplesMap :map_urinary_system_test_location_000;
    rr:joinCondition :jc_018.
:jc_018 rr:child "row_id";
    rr:parent "row_id".
:om_058 a rr:ObjectMap;
    rr:parentTriplesMap :map_urinary_system_test_laterality_of_anatomical_location_000;
    rr:joinCondition :jc_019.
:jc_019 rr:child "row_id";
    rr:parent "row_id".
:om_059 a rr:ObjectMap;
    rr:parentTriplesMap :map_urinary_system_test_method_000;
    rr:joinCondition :jc_020.
:jc_020 rr:child "row_id";
    rr:parent "row_id".
:om_060 a rr:ObjectMap;
    rr:parentTriplesMap :map_urinary_system_test_numeric_result_in_standard_units_000;
    rr:joinCondition :jc_021.
:jc_021 rr:child "row_id";
    rr:parent "row_id".
:om_061 a rr:ObjectMap;
    rr:parentTriplesMap :map_urinary_system_test_numeric_result_in_original_units_000;
    rr:joinCondition :jc_022.
:jc_022 rr:child "row_id";
    rr:parent "row_id".
:om_062 a rr:ObjectMap;
    rr:parentTriplesMap :map_urinary_system_test_character_result_in_standard_format_000;
    rr:joinCondition :jc_023.
:jc_023 rr:child "row_id";
    rr:parent "row_id".
:om_072 a rr:ObjectMap;
    rr:parentTriplesMap :map_urinary_system_test_numeric_result_in_standard_units_attribute_000;
    rr:joinCondition :jc_024.
:jc_024 rr:child "row_id";
    rr:parent "row_id".
:om_074 a rr:ObjectMap;
    rr:parentTriplesMap :map_urinary_system_test_numeric_result_in_standard_units_quantitative_value_000;
    rr:joinCondition :jc_025.
:jc_025 rr:child "row_id";
    rr:parent "row_id".
:om_079 a rr:ObjectMap;
    rr:parentTriplesMap :map_urinary_system_test_numeric_result_in_original_units_attribute_000;
    rr:joinCondition :jc_026.
:jc_026 rr:child "row_id";
    rr:parent "row_id".
:om_081 a rr:ObjectMap;
    rr:parentTriplesMap :map_urinary_system_test_numeric_result_in_original_units_quantitative_value_000;
    rr:joinCondition :jc_027.
:jc_027 rr:child "row_id";
    rr:parent "row_id".
:om_086 a rr:ObjectMap;
    rr:parentTriplesMap :map_urinary_system_test_character_result_in_standard_format_attribute_000;
    rr:joinCondition :jc_028.
:jc_028 rr:child "row_id";
    rr:parent "row_id".
