domain,row_id,studyid,usubjid,urseq,urgrpid,urtestcd,urtest,urorres,urorresu,urstresc,urstresn,urstresu,urloc,urlat,urmethod,visitnum,visit,mpdtc,urtest_uri,urloc_uri
ur,1,sample,1,1,,VOLUME,Volume,100.0,mL,100.0,100.0,mL,KIDNEY,BILATERAL,MRI,1,visit_one,1/1/1999,https://w3id.org/c-path/biolink_sdtm_owl/LOCVOLUME,https://w3id.org/c-path/biolink_sdtm_owl/KIDNEY
ur,2,sample,2,2,,VOLUME,Volume,100.11,mL,100.11,100.11,mL,KIDNEY,RIGHT,MRI,1,visit_one,1/1/1999,https://w3id.org/c-path/biolink_sdtm_owl/LOCVOLUME,https://w3id.org/c-path/biolink_sdtm_owl/KIDNEY
ur,3,sample,2,3,,VOLUME,Volume,100.11,mL,100.11,100.11,mL,KIDNEY,LEFT,MRI,1,visit_one,1/1/1999,https://w3id.org/c-path/biolink_sdtm_owl/LOCVOLUME,https://w3id.org/c-path/biolink_sdtm_owl/KIDNEY
